'mturk_id';'exp_condition';'train_type';'test_type';'stim_type';'trial_type';'block';'trial_index';'trial_idx';'correct';'rt';'sim_score';'distance';'ydist';'xdist';'comparison_type';'stimulus';'stimulus_2';'stimulus_x';'stimulus_a';'stimulus_b';'a_path';'key_press';'url';'ts'
'ADMTRXEG43HU0';'TRAIN-XAB-HD';'TRAIN';'XAB';'HD';'text';\N;'0';\N;\N;'44536';\N;\N;\N;\N;\N;\N;\N;\N;\N;\N;\N;\N;\N;'2014-06-06 18:38:52'
'ADMTRXEG43HU0';'TRAIN-XAB-HD';'TRAIN';'XAB';'HD';'text';\N;'1';\N;\N;'15928';\N;\N;\N;\N;\N;\N;\N;\N;\N;\N;\N;\N;\N;'2014-06-06 18:38:52'
'ADMTRXEG43HU0';'TRAIN-XAB-HD';'TRAIN';'XAB';'HD';'text';\N;'2';\N;\N;'25513';\N;\N;\N;\N;\N;\N;\N;\N;\N;\N;\N;\N;\N;'2014-06-06 18:38:52'
'ADMTRXEG43HU0';'TRAIN-XAB-HD';'TRAIN';'XAB';'HD';'text';\N;'3';\N;\N;'21146';\N;\N;\N;\N;\N;\N;\N;\N;\N;\N;\N;\N;\N;'2014-06-06 18:38:52'
'ADMTRXEG43HU0';'TRAIN-XAB-HD';'TRAIN';'XAB';'HD';'adaptive_train';'0';'0';\N;'1';'8668';\N;\N;\N;\N;\N;'img/HD_5_1_.jpg';\N;\N;\N;\N;\N;'84';\N;'2014-06-06 18:38:52'
'ADMTRXEG43HU0';'TRAIN-XAB-HD';'TRAIN';'XAB';'HD';'adaptive_train';'0';'1';\N;'1';'3340';\N;\N;\N;\N;\N;'img/HD_4_1_.jpg';\N;\N;\N;\N;\N;'84';\N;'2014-06-06 18:38:52'
'ADMTRXEG43HU0';'TRAIN-XAB-HD';'TRAIN';'XAB';'HD';'adaptive_train';'0';'2';\N;'0';'3281';\N;\N;\N;\N;\N;'img/HD_6_6_.jpg';\N;\N;\N;\N;\N;'84';\N;'2014-06-06 18:38:52'
'ADMTRXEG43HU0';'TRAIN-XAB-HD';'TRAIN';'XAB';'HD';'adaptive_train';'0';'3';\N;'1';'2148';\N;\N;\N;\N;\N;'img/HD_3_6_.jpg';\N;\N;\N;\N;\N;'66';\N;'2014-06-06 18:38:52'
'ADMTRXEG43HU0';'TRAIN-XAB-HD';'TRAIN';'XAB';'HD';'adaptive_train';'0';'4';\N;'1';'2594';\N;\N;\N;\N;\N;'img/HD_5_5_.jpg';\N;\N;\N;\N;\N;'66';\N;'2014-06-06 18:38:52'
'ADMTRXEG43HU0';'TRAIN-XAB-HD';'TRAIN';'XAB';'HD';'adaptive_train';'0';'5';\N;'1';'2869';\N;\N;\N;\N;\N;'img/HD_4_2_.jpg';\N;\N;\N;\N;\N;'84';\N;'2014-06-06 18:38:52'
'ADMTRXEG43HU0';'TRAIN-XAB-HD';'TRAIN';'XAB';'HD';'adaptive_train';'0';'6';\N;'1';'1551';\N;\N;\N;\N;\N;'img/HD_6_1_.jpg';\N;\N;\N;\N;\N;'84';\N;'2014-06-06 18:38:52'
'ADMTRXEG43HU0';'TRAIN-XAB-HD';'TRAIN';'XAB';'HD';'adaptive_train';'0';'7';\N;'1';'1118';\N;\N;\N;\N;\N;'img/HD_4_5_.jpg';\N;\N;\N;\N;\N;'66';\N;'2014-06-06 18:38:52'
'ADMTRXEG43HU0';'TRAIN-XAB-HD';'TRAIN';'XAB';'HD';'adaptive_train';'0';'8';\N;'1';'2234';\N;\N;\N;\N;\N;'img/HD_1_3_.jpg';\N;\N;\N;\N;\N;'84';\N;'2014-06-06 18:38:52'
'ADMTRXEG43HU0';'TRAIN-XAB-HD';'TRAIN';'XAB';'HD';'adaptive_train';'0';'9';\N;'1';'1067';\N;\N;\N;\N;\N;'img/HD_4_3_.jpg';\N;\N;\N;\N;\N;'84';\N;'2014-06-06 18:38:52'
'ADMTRXEG43HU0';'TRAIN-XAB-HD';'TRAIN';'XAB';'HD';'adaptive_train';'0';'10';\N;'1';'964';\N;\N;\N;\N;\N;'img/HD_4_6_.jpg';\N;\N;\N;\N;\N;'66';\N;'2014-06-06 18:38:52'
'ADMTRXEG43HU0';'TRAIN-XAB-HD';'TRAIN';'XAB';'HD';'adaptive_train';'0';'11';\N;'1';'800';\N;\N;\N;\N;\N;'img/HD_6_2_.jpg';\N;\N;\N;\N;\N;'84';\N;'2014-06-06 18:38:52'
'ADMTRXEG43HU0';'TRAIN-XAB-HD';'TRAIN';'XAB';'HD';'adaptive_train';'0';'12';\N;'1';'1606';\N;\N;\N;\N;\N;'img/HD_3_4_.jpg';\N;\N;\N;\N;\N;'66';\N;'2014-06-06 18:38:52'
'ADMTRXEG43HU0';'TRAIN-XAB-HD';'TRAIN';'XAB';'HD';'adaptive_train';'0';'13';\N;'1';'993';\N;\N;\N;\N;\N;'img/HD_1_2_.jpg';\N;\N;\N;\N;\N;'84';\N;'2014-06-06 18:38:52'
'ADMTRXEG43HU0';'TRAIN-XAB-HD';'TRAIN';'XAB';'HD';'adaptive_train';'0';'14';\N;'1';'853';\N;\N;\N;\N;\N;'img/HD_2_1_.jpg';\N;\N;\N;\N;\N;'84';\N;'2014-06-06 18:38:52'
'ADMTRXEG43HU0';'TRAIN-XAB-HD';'TRAIN';'XAB';'HD';'adaptive_train';'0';'15';\N;'1';'772';\N;\N;\N;\N;\N;'img/HD_2_4_.jpg';\N;\N;\N;\N;\N;'66';\N;'2014-06-06 18:38:52'
'ADMTRXEG43HU0';'TRAIN-XAB-HD';'TRAIN';'XAB';'HD';'adaptive_train';'0';'16';\N;'1';'804';\N;\N;\N;\N;\N;'img/HD_5_6_.jpg';\N;\N;\N;\N;\N;'66';\N;'2014-06-06 18:38:52'
'ADMTRXEG43HU0';'TRAIN-XAB-HD';'TRAIN';'XAB';'HD';'adaptive_train';'0';'17';\N;'1';'738';\N;\N;\N;\N;\N;'img/HD_1_6_.jpg';\N;\N;\N;\N;\N;'66';\N;'2014-06-06 18:38:52'
'ADMTRXEG43HU0';'TRAIN-XAB-HD';'TRAIN';'XAB';'HD';'adaptive_train';'0';'18';\N;'1';'723';\N;\N;\N;\N;\N;'img/HD_1_1_.jpg';\N;\N;\N;\N;\N;'84';\N;'2014-06-06 18:38:52'
'ADMTRXEG43HU0';'TRAIN-XAB-HD';'TRAIN';'XAB';'HD';'adaptive_train';'0';'19';\N;'1';'728';\N;\N;\N;\N;\N;'img/HD_3_5_.jpg';\N;\N;\N;\N;\N;'66';\N;'2014-06-06 18:38:52'
'ADMTRXEG43HU0';'TRAIN-XAB-HD';'TRAIN';'XAB';'HD';'adaptive_train';'0';'20';\N;'1';'782';\N;\N;\N;\N;\N;'img/HD_6_3_.jpg';\N;\N;\N;\N;\N;'84';\N;'2014-06-06 18:38:52'
'ADMTRXEG43HU0';'TRAIN-XAB-HD';'TRAIN';'XAB';'HD';'adaptive_train';'0';'21';\N;'1';'715';\N;\N;\N;\N;\N;'img/HD_6_5_.jpg';\N;\N;\N;\N;\N;'66';\N;'2014-06-06 18:38:52'
'ADMTRXEG43HU0';'TRAIN-XAB-HD';'TRAIN';'XAB';'HD';'adaptive_train';'0';'22';\N;'1';'1066';\N;\N;\N;\N;\N;'img/HD_2_5_.jpg';\N;\N;\N;\N;\N;'66';\N;'2014-06-06 18:38:52'
'ADMTRXEG43HU0';'TRAIN-XAB-HD';'TRAIN';'XAB';'HD';'adaptive_train';'0';'23';\N;'1';'731';\N;\N;\N;\N;\N;'img/HD_3_2_.jpg';\N;\N;\N;\N;\N;'84';\N;'2014-06-06 18:38:52'
'ADMTRXEG43HU0';'TRAIN-XAB-HD';'TRAIN';'XAB';'HD';'adaptive_train';'0';'24';\N;'1';'670';\N;\N;\N;\N;\N;'img/HD_5_4_.jpg';\N;\N;\N;\N;\N;'66';\N;'2014-06-06 18:38:52'
'ADMTRXEG43HU0';'TRAIN-XAB-HD';'TRAIN';'XAB';'HD';'adaptive_train';'0';'25';\N;'1';'675';\N;\N;\N;\N;\N;'img/HD_5_2_.jpg';\N;\N;\N;\N;\N;'84';\N;'2014-06-06 18:38:52'
'ADMTRXEG43HU0';'TRAIN-XAB-HD';'TRAIN';'XAB';'HD';'adaptive_train';'0';'26';\N;'1';'732';\N;\N;\N;\N;\N;'img/HD_1_4_.jpg';\N;\N;\N;\N;\N;'66';\N;'2014-06-06 18:38:52'
'ADMTRXEG43HU0';'TRAIN-XAB-HD';'TRAIN';'XAB';'HD';'adaptive_train';'0';'27';\N;'0';'922';\N;\N;\N;\N;\N;'img/HD_2_3_.jpg';\N;\N;\N;\N;\N;'66';\N;'2014-06-06 18:38:52'
'ADMTRXEG43HU0';'TRAIN-XAB-HD';'TRAIN';'XAB';'HD';'adaptive_train';'0';'28';\N;'1';'825';\N;\N;\N;\N;\N;'img/HD_2_2_.jpg';\N;\N;\N;\N;\N;'84';\N;'2014-06-06 18:38:52'
'ADMTRXEG43HU0';'TRAIN-XAB-HD';'TRAIN';'XAB';'HD';'adaptive_train';'0';'29';\N;'1';'636';\N;\N;\N;\N;\N;'img/HD_1_5_.jpg';\N;\N;\N;\N;\N;'66';\N;'2014-06-06 18:38:52'
'ADMTRXEG43HU0';'TRAIN-XAB-HD';'TRAIN';'XAB';'HD';'adaptive_train';'0';'30';\N;'1';'715';\N;\N;\N;\N;\N;'img/HD_3_1_.jpg';\N;\N;\N;\N;\N;'84';\N;'2014-06-06 18:38:52'
'ADMTRXEG43HU0';'TRAIN-XAB-HD';'TRAIN';'XAB';'HD';'adaptive_train';'0';'31';\N;'1';'655';\N;\N;\N;\N;\N;'img/HD_2_6_.jpg';\N;\N;\N;\N;\N;'66';\N;'2014-06-06 18:38:52'
'ADMTRXEG43HU0';'TRAIN-XAB-HD';'TRAIN';'XAB';'HD';'adaptive_train';'0';'32';\N;'0';'840';\N;\N;\N;\N;\N;'img/HD_6_4_.jpg';\N;\N;\N;\N;\N;'84';\N;'2014-06-06 18:38:52'
'ADMTRXEG43HU0';'TRAIN-XAB-HD';'TRAIN';'XAB';'HD';'adaptive_train';'0';'33';\N;'1';'1017';\N;\N;\N;\N;\N;'img/HD_4_4_.jpg';\N;\N;\N;\N;\N;'66';\N;'2014-06-06 18:38:52'
'ADMTRXEG43HU0';'TRAIN-XAB-HD';'TRAIN';'XAB';'HD';'adaptive_train';'0';'34';\N;'0';'3241';\N;\N;\N;\N;\N;'img/HD_3_3_.jpg';\N;\N;\N;\N;\N;'66';\N;'2014-06-06 18:38:52'
'ADMTRXEG43HU0';'TRAIN-XAB-HD';'TRAIN';'XAB';'HD';'adaptive_train';'0';'35';\N;'1';'1698';\N;\N;\N;\N;\N;'img/HD_5_3_.jpg';\N;\N;\N;\N;\N;'84';\N;'2014-06-06 18:38:52'
'ADMTRXEG43HU0';'TRAIN-XAB-HD';'TRAIN';'XAB';'HD';'adaptive_train';'1';'0';\N;'1';'2695';\N;\N;\N;\N;\N;'img/HD_2_5_.jpg';\N;\N;\N;\N;\N;'66';\N;'2014-06-06 18:38:52'
'ADMTRXEG43HU0';'TRAIN-XAB-HD';'TRAIN';'XAB';'HD';'adaptive_train';'1';'1';\N;'1';'1454';\N;\N;\N;\N;\N;'img/HD_4_3_.jpg';\N;\N;\N;\N;\N;'84';\N;'2014-06-06 18:38:52'
'ADMTRXEG43HU0';'TRAIN-XAB-HD';'TRAIN';'XAB';'HD';'adaptive_train';'1';'2';\N;'1';'728';\N;\N;\N;\N;\N;'img/HD_5_5_.jpg';\N;\N;\N;\N;\N;'66';\N;'2014-06-06 18:38:52'
'ADMTRXEG43HU0';'TRAIN-XAB-HD';'TRAIN';'XAB';'HD';'adaptive_train';'1';'3';\N;'1';'657';\N;\N;\N;\N;\N;'img/HD_2_1_.jpg';\N;\N;\N;\N;\N;'84';\N;'2014-06-06 18:38:52'
'ADMTRXEG43HU0';'TRAIN-XAB-HD';'TRAIN';'XAB';'HD';'adaptive_train';'1';'4';\N;'1';'1434';\N;\N;\N;\N;\N;'img/HD_5_3_.jpg';\N;\N;\N;\N;\N;'84';\N;'2014-06-06 18:38:52'
'ADMTRXEG43HU0';'TRAIN-XAB-HD';'TRAIN';'XAB';'HD';'adaptive_train';'1';'5';\N;'1';'1241';\N;\N;\N;\N;\N;'img/HD_2_4_.jpg';\N;\N;\N;\N;\N;'66';\N;'2014-06-06 18:38:52'
'ADMTRXEG43HU0';'TRAIN-XAB-HD';'TRAIN';'XAB';'HD';'adaptive_train';'1';'6';\N;'1';'873';\N;\N;\N;\N;\N;'img/HD_1_6_.jpg';\N;\N;\N;\N;\N;'66';\N;'2014-06-06 18:38:52'
'ADMTRXEG43HU0';'TRAIN-XAB-HD';'TRAIN';'XAB';'HD';'adaptive_train';'1';'7';\N;'1';'754';\N;\N;\N;\N;\N;'img/HD_3_2_.jpg';\N;\N;\N;\N;\N;'84';\N;'2014-06-06 18:38:52'
'ADMTRXEG43HU0';'TRAIN-XAB-HD';'TRAIN';'XAB';'HD';'adaptive_train';'1';'8';\N;'1';'861';\N;\N;\N;\N;\N;'img/HD_2_6_.jpg';\N;\N;\N;\N;\N;'66';\N;'2014-06-06 18:38:52'
'ADMTRXEG43HU0';'TRAIN-XAB-HD';'TRAIN';'XAB';'HD';'adaptive_train';'1';'9';\N;'1';'679';\N;\N;\N;\N;\N;'img/HD_4_5_.jpg';\N;\N;\N;\N;\N;'66';\N;'2014-06-06 18:38:52'
'ADMTRXEG43HU0';'TRAIN-XAB-HD';'TRAIN';'XAB';'HD';'adaptive_train';'1';'10';\N;'1';'873';\N;\N;\N;\N;\N;'img/HD_4_2_.jpg';\N;\N;\N;\N;\N;'84';\N;'2014-06-06 18:38:52'
'ADMTRXEG43HU0';'TRAIN-XAB-HD';'TRAIN';'XAB';'HD';'adaptive_train';'1';'11';\N;'1';'894';\N;\N;\N;\N;\N;'img/HD_4_4_.jpg';\N;\N;\N;\N;\N;'66';\N;'2014-06-06 18:38:52'
'ADMTRXEG43HU0';'TRAIN-XAB-HD';'TRAIN';'XAB';'HD';'adaptive_train';'1';'12';\N;'1';'774';\N;\N;\N;\N;\N;'img/HD_5_6_.jpg';\N;\N;\N;\N;\N;'66';\N;'2014-06-06 18:38:52'
'ADMTRXEG43HU0';'TRAIN-XAB-HD';'TRAIN';'XAB';'HD';'adaptive_train';'1';'13';\N;'0';'732';\N;\N;\N;\N;\N;'img/HD_5_4_.jpg';\N;\N;\N;\N;\N;'84';\N;'2014-06-06 18:38:52'
'ADMTRXEG43HU0';'TRAIN-XAB-HD';'TRAIN';'XAB';'HD';'adaptive_train';'1';'14';\N;'1';'743';\N;\N;\N;\N;\N;'img/HD_3_5_.jpg';\N;\N;\N;\N;\N;'66';\N;'2014-06-06 18:38:52'
'ADMTRXEG43HU0';'TRAIN-XAB-HD';'TRAIN';'XAB';'HD';'adaptive_train';'1';'15';\N;'1';'833';\N;\N;\N;\N;\N;'img/HD_6_2_.jpg';\N;\N;\N;\N;\N;'84';\N;'2014-06-06 18:38:52'
'ADMTRXEG43HU0';'TRAIN-XAB-HD';'TRAIN';'XAB';'HD';'adaptive_train';'1';'16';\N;'1';'964';\N;\N;\N;\N;\N;'img/HD_1_5_.jpg';\N;\N;\N;\N;\N;'66';\N;'2014-06-06 18:38:52'
'ADMTRXEG43HU0';'TRAIN-XAB-HD';'TRAIN';'XAB';'HD';'adaptive_train';'1';'17';\N;'1';'828';\N;\N;\N;\N;\N;'img/HD_4_6_.jpg';\N;\N;\N;\N;\N;'66';\N;'2014-06-06 18:38:52'
'ADMTRXEG43HU0';'TRAIN-XAB-HD';'TRAIN';'XAB';'HD';'adaptive_train';'1';'18';\N;'1';'922';\N;\N;\N;\N;\N;'img/HD_1_3_.jpg';\N;\N;\N;\N;\N;'84';\N;'2014-06-06 18:38:52'
'ADMTRXEG43HU0';'TRAIN-XAB-HD';'TRAIN';'XAB';'HD';'adaptive_train';'1';'19';\N;'1';'792';\N;\N;\N;\N;\N;'img/HD_6_3_.jpg';\N;\N;\N;\N;\N;'84';\N;'2014-06-06 18:38:52'
'ADMTRXEG43HU0';'TRAIN-XAB-HD';'TRAIN';'XAB';'HD';'adaptive_train';'1';'20';\N;'1';'926';\N;\N;\N;\N;\N;'img/HD_3_3_.jpg';\N;\N;\N;\N;\N;'84';\N;'2014-06-06 18:38:52'
'ADMTRXEG43HU0';'TRAIN-XAB-HD';'TRAIN';'XAB';'HD';'adaptive_train';'1';'21';\N;'1';'709';\N;\N;\N;\N;\N;'img/HD_1_1_.jpg';\N;\N;\N;\N;\N;'84';\N;'2014-06-06 18:38:52'
'ADMTRXEG43HU0';'TRAIN-XAB-HD';'TRAIN';'XAB';'HD';'adaptive_train';'1';'22';\N;'1';'762';\N;\N;\N;\N;\N;'img/HD_5_2_.jpg';\N;\N;\N;\N;\N;'84';\N;'2014-06-06 18:38:52'
'ADMTRXEG43HU0';'TRAIN-XAB-HD';'TRAIN';'XAB';'HD';'adaptive_train';'1';'23';\N;'1';'676';\N;\N;\N;\N;\N;'img/HD_3_1_.jpg';\N;\N;\N;\N;\N;'84';\N;'2014-06-06 18:38:52'
'ADMTRXEG43HU0';'TRAIN-XAB-HD';'TRAIN';'XAB';'HD';'adaptive_train';'1';'24';\N;'1';'631';\N;\N;\N;\N;\N;'img/HD_4_1_.jpg';\N;\N;\N;\N;\N;'84';\N;'2014-06-06 18:38:52'
'ADMTRXEG43HU0';'TRAIN-XAB-HD';'TRAIN';'XAB';'HD';'adaptive_train';'1';'25';\N;'1';'757';\N;\N;\N;\N;\N;'img/HD_6_1_.jpg';\N;\N;\N;\N;\N;'84';\N;'2014-06-06 18:38:52'
'ADMTRXEG43HU0';'TRAIN-XAB-HD';'TRAIN';'XAB';'HD';'adaptive_train';'1';'26';\N;'1';'565';\N;\N;\N;\N;\N;'img/HD_5_1_.jpg';\N;\N;\N;\N;\N;'84';\N;'2014-06-06 18:38:52'
'ADMTRXEG43HU0';'TRAIN-XAB-HD';'TRAIN';'XAB';'HD';'adaptive_train';'1';'27';\N;'0';'1598';\N;\N;\N;\N;\N;'img/HD_2_3_.jpg';\N;\N;\N;\N;\N;'66';\N;'2014-06-06 18:38:52'
'ADMTRXEG43HU0';'TRAIN-XAB-HD';'TRAIN';'XAB';'HD';'adaptive_train';'1';'28';\N;'1';'860';\N;\N;\N;\N;\N;'img/HD_1_2_.jpg';\N;\N;\N;\N;\N;'84';\N;'2014-06-06 18:38:52'
'ADMTRXEG43HU0';'TRAIN-XAB-HD';'TRAIN';'XAB';'HD';'adaptive_train';'1';'29';\N;'1';'1001';\N;\N;\N;\N;\N;'img/HD_6_4_.jpg';\N;\N;\N;\N;\N;'66';\N;'2014-06-06 18:38:52'
'ADMTRXEG43HU0';'TRAIN-XAB-HD';'TRAIN';'XAB';'HD';'adaptive_train';'1';'30';\N;'1';'697';\N;\N;\N;\N;\N;'img/HD_6_5_.jpg';\N;\N;\N;\N;\N;'66';\N;'2014-06-06 18:38:52'
'ADMTRXEG43HU0';'TRAIN-XAB-HD';'TRAIN';'XAB';'HD';'adaptive_train';'1';'31';\N;'1';'722';\N;\N;\N;\N;\N;'img/HD_2_2_.jpg';\N;\N;\N;\N;\N;'84';\N;'2014-06-06 18:38:52'
'ADMTRXEG43HU0';'TRAIN-XAB-HD';'TRAIN';'XAB';'HD';'adaptive_train';'1';'32';\N;'0';'2334';\N;\N;\N;\N;\N;'img/HD_3_4_.jpg';\N;\N;\N;\N;\N;'84';\N;'2014-06-06 18:38:52'
'ADMTRXEG43HU0';'TRAIN-XAB-HD';'TRAIN';'XAB';'HD';'adaptive_train';'1';'33';\N;'1';'1194';\N;\N;\N;\N;\N;'img/HD_6_6_.jpg';\N;\N;\N;\N;\N;'66';\N;'2014-06-06 18:38:52'
'ADMTRXEG43HU0';'TRAIN-XAB-HD';'TRAIN';'XAB';'HD';'adaptive_train';'1';'34';\N;'1';'4048';\N;\N;\N;\N;\N;'img/HD_1_4_.jpg';\N;\N;\N;\N;\N;'66';\N;'2014-06-06 18:38:52'
'ADMTRXEG43HU0';'TRAIN-XAB-HD';'TRAIN';'XAB';'HD';'adaptive_train';'1';'35';\N;'1';'670';\N;\N;\N;\N;\N;'img/HD_3_6_.jpg';\N;\N;\N;\N;\N;'66';\N;'2014-06-06 18:38:52'
'ADMTRXEG43HU0';'TRAIN-XAB-HD';'TRAIN';'XAB';'HD';'adaptive_train';'2';'0';\N;'1';'2741';\N;\N;\N;\N;\N;'img/HD_4_1_.jpg';\N;\N;\N;\N;\N;'84';\N;'2014-06-06 18:38:52'
'ADMTRXEG43HU0';'TRAIN-XAB-HD';'TRAIN';'XAB';'HD';'adaptive_train';'2';'1';\N;'1';'1191';\N;\N;\N;\N;\N;'img/HD_1_3_.jpg';\N;\N;\N;\N;\N;'84';\N;'2014-06-06 18:38:52'
'ADMTRXEG43HU0';'TRAIN-XAB-HD';'TRAIN';'XAB';'HD';'adaptive_train';'2';'2';\N;'1';'791';\N;\N;\N;\N;\N;'img/HD_5_6_.jpg';\N;\N;\N;\N;\N;'66';\N;'2014-06-06 18:38:52'
'ADMTRXEG43HU0';'TRAIN-XAB-HD';'TRAIN';'XAB';'HD';'adaptive_train';'2';'3';\N;'1';'1287';\N;\N;\N;\N;\N;'img/HD_2_5_.jpg';\N;\N;\N;\N;\N;'66';\N;'2014-06-06 18:38:52'
'ADMTRXEG43HU0';'TRAIN-XAB-HD';'TRAIN';'XAB';'HD';'adaptive_train';'2';'4';\N;'0';'1684';\N;\N;\N;\N;\N;'img/HD_1_4_.jpg';\N;\N;\N;\N;\N;'84';\N;'2014-06-06 18:38:52'
'ADMTRXEG43HU0';'TRAIN-XAB-HD';'TRAIN';'XAB';'HD';'adaptive_train';'2';'5';\N;'1';'665';\N;\N;\N;\N;\N;'img/HD_3_1_.jpg';\N;\N;\N;\N;\N;'84';\N;'2014-06-06 18:38:52'
'ADMTRXEG43HU0';'TRAIN-XAB-HD';'TRAIN';'XAB';'HD';'adaptive_train';'2';'6';\N;'1';'1120';\N;\N;\N;\N;\N;'img/HD_3_4_.jpg';\N;\N;\N;\N;\N;'66';\N;'2014-06-06 18:38:52'
'ADMTRXEG43HU0';'TRAIN-XAB-HD';'TRAIN';'XAB';'HD';'adaptive_train';'2';'7';\N;'1';'803';\N;\N;\N;\N;\N;'img/HD_5_4_.jpg';\N;\N;\N;\N;\N;'66';\N;'2014-06-06 18:38:52'
'ADMTRXEG43HU0';'TRAIN-XAB-HD';'TRAIN';'XAB';'HD';'adaptive_train';'2';'8';\N;'1';'831';\N;\N;\N;\N;\N;'img/HD_2_6_.jpg';\N;\N;\N;\N;\N;'66';\N;'2014-06-06 18:38:52'
'ADMTRXEG43HU0';'TRAIN-XAB-HD';'TRAIN';'XAB';'HD';'adaptive_train';'2';'9';\N;'1';'774';\N;\N;\N;\N;\N;'img/HD_1_5_.jpg';\N;\N;\N;\N;\N;'66';\N;'2014-06-06 18:38:52'
'ADMTRXEG43HU0';'TRAIN-XAB-HD';'TRAIN';'XAB';'HD';'adaptive_train';'2';'10';\N;'1';'801';\N;\N;\N;\N;\N;'img/HD_6_3_.jpg';\N;\N;\N;\N;\N;'84';\N;'2014-06-06 18:38:52'
'ADMTRXEG43HU0';'TRAIN-XAB-HD';'TRAIN';'XAB';'HD';'adaptive_train';'2';'11';\N;'1';'1202';\N;\N;\N;\N;\N;'img/HD_4_5_.jpg';\N;\N;\N;\N;\N;'66';\N;'2014-06-06 18:38:52'
'ADMTRXEG43HU0';'TRAIN-XAB-HD';'TRAIN';'XAB';'HD';'adaptive_train';'2';'12';\N;'1';'639';\N;\N;\N;\N;\N;'img/HD_5_2_.jpg';\N;\N;\N;\N;\N;'84';\N;'2014-06-06 18:38:52'
'ADMTRXEG43HU0';'TRAIN-XAB-HD';'TRAIN';'XAB';'HD';'adaptive_train';'2';'13';\N;'1';'668';\N;\N;\N;\N;\N;'img/HD_1_2_.jpg';\N;\N;\N;\N;\N;'84';\N;'2014-06-06 18:38:52'
'ADMTRXEG43HU0';'TRAIN-XAB-HD';'TRAIN';'XAB';'HD';'adaptive_train';'2';'14';\N;'1';'535';\N;\N;\N;\N;\N;'img/HD_2_2_.jpg';\N;\N;\N;\N;\N;'84';\N;'2014-06-06 18:38:52'
'ADMTRXEG43HU0';'TRAIN-XAB-HD';'TRAIN';'XAB';'HD';'adaptive_train';'2';'15';\N;'1';'734';\N;\N;\N;\N;\N;'img/HD_4_6_.jpg';\N;\N;\N;\N;\N;'66';\N;'2014-06-06 18:38:52'
'ADMTRXEG43HU0';'TRAIN-XAB-HD';'TRAIN';'XAB';'HD';'adaptive_train';'2';'16';\N;'1';'3088';\N;\N;\N;\N;\N;'img/HD_6_5_.jpg';\N;\N;\N;\N;\N;'66';\N;'2014-06-06 18:38:52'
'ADMTRXEG43HU0';'TRAIN-XAB-HD';'TRAIN';'XAB';'HD';'adaptive_train';'2';'17';\N;'1';'626';\N;\N;\N;\N;\N;'img/HD_6_2_.jpg';\N;\N;\N;\N;\N;'84';\N;'2014-06-06 18:38:52'
'ADMTRXEG43HU0';'TRAIN-XAB-HD';'TRAIN';'XAB';'HD';'adaptive_train';'2';'18';\N;'1';'616';\N;\N;\N;\N;\N;'img/HD_1_1_.jpg';\N;\N;\N;\N;\N;'84';\N;'2014-06-06 18:38:52'
'ADMTRXEG43HU0';'TRAIN-XAB-HD';'TRAIN';'XAB';'HD';'adaptive_train';'2';'19';\N;'1';'2567';\N;\N;\N;\N;\N;'img/HD_3_3_.jpg';\N;\N;\N;\N;\N;'84';\N;'2014-06-06 18:38:52'
'ADMTRXEG43HU0';'TRAIN-XAB-HD';'TRAIN';'XAB';'HD';'adaptive_train';'2';'20';\N;'1';'717';\N;\N;\N;\N;\N;'img/HD_3_2_.jpg';\N;\N;\N;\N;\N;'84';\N;'2014-06-06 18:38:52'
'ADMTRXEG43HU0';'TRAIN-XAB-HD';'TRAIN';'XAB';'HD';'adaptive_train';'2';'21';\N;'1';'821';\N;\N;\N;\N;\N;'img/HD_3_5_.jpg';\N;\N;\N;\N;\N;'66';\N;'2014-06-06 18:38:52'
'ADMTRXEG43HU0';'TRAIN-XAB-HD';'TRAIN';'XAB';'HD';'adaptive_train';'2';'22';\N;'1';'899';\N;\N;\N;\N;\N;'img/HD_4_3_.jpg';\N;\N;\N;\N;\N;'84';\N;'2014-06-06 18:38:52'
'ADMTRXEG43HU0';'TRAIN-XAB-HD';'TRAIN';'XAB';'HD';'adaptive_train';'2';'23';\N;'1';'838';\N;\N;\N;\N;\N;'img/HD_5_3_.jpg';\N;\N;\N;\N;\N;'84';\N;'2014-06-06 18:38:52'
'ADMTRXEG43HU0';'TRAIN-XAB-HD';'TRAIN';'XAB';'HD';'adaptive_train';'2';'24';\N;'1';'1456';\N;\N;\N;\N;\N;'img/HD_4_2_.jpg';\N;\N;\N;\N;\N;'84';\N;'2014-06-06 18:38:52'
'ADMTRXEG43HU0';'TRAIN-XAB-HD';'TRAIN';'XAB';'HD';'adaptive_train';'2';'25';\N;'1';'718';\N;\N;\N;\N;\N;'img/HD_6_1_.jpg';\N;\N;\N;\N;\N;'84';\N;'2014-06-06 18:38:52'
'ADMTRXEG43HU0';'TRAIN-XAB-HD';'TRAIN';'XAB';'HD';'adaptive_train';'2';'26';\N;'1';'1274';\N;\N;\N;\N;\N;'img/HD_6_4_.jpg';\N;\N;\N;\N;\N;'66';\N;'2014-06-06 18:38:52'
'ADMTRXEG43HU0';'TRAIN-XAB-HD';'TRAIN';'XAB';'HD';'adaptive_train';'2';'27';\N;'1';'646';\N;\N;\N;\N;\N;'img/HD_5_5_.jpg';\N;\N;\N;\N;\N;'66';\N;'2014-06-06 18:38:52'
'ADMTRXEG43HU0';'TRAIN-XAB-HD';'TRAIN';'XAB';'HD';'adaptive_train';'2';'28';\N;'1';'1510';\N;\N;\N;\N;\N;'img/HD_2_3_.jpg';\N;\N;\N;\N;\N;'84';\N;'2014-06-06 18:38:52'
'ADMTRXEG43HU0';'TRAIN-XAB-HD';'TRAIN';'XAB';'HD';'adaptive_train';'2';'29';\N;'1';'726';\N;\N;\N;\N;\N;'img/HD_6_6_.jpg';\N;\N;\N;\N;\N;'66';\N;'2014-06-06 18:38:52'
'ADMTRXEG43HU0';'TRAIN-XAB-HD';'TRAIN';'XAB';'HD';'adaptive_train';'2';'30';\N;'1';'911';\N;\N;\N;\N;\N;'img/HD_2_1_.jpg';\N;\N;\N;\N;\N;'84';\N;'2014-06-06 18:38:52'
'ADMTRXEG43HU0';'TRAIN-XAB-HD';'TRAIN';'XAB';'HD';'adaptive_train';'2';'31';\N;'1';'925';\N;\N;\N;\N;\N;'img/HD_3_6_.jpg';\N;\N;\N;\N;\N;'66';\N;'2014-06-06 18:38:52'
'ADMTRXEG43HU0';'TRAIN-XAB-HD';'TRAIN';'XAB';'HD';'adaptive_train';'2';'32';\N;'1';'2590';\N;\N;\N;\N;\N;'img/HD_4_4_.jpg';\N;\N;\N;\N;\N;'66';\N;'2014-06-06 18:38:52'
'ADMTRXEG43HU0';'TRAIN-XAB-HD';'TRAIN';'XAB';'HD';'adaptive_train';'2';'33';\N;'1';'884';\N;\N;\N;\N;\N;'img/HD_1_6_.jpg';\N;\N;\N;\N;\N;'66';\N;'2014-06-06 18:38:52'
'ADMTRXEG43HU0';'TRAIN-XAB-HD';'TRAIN';'XAB';'HD';'adaptive_train';'2';'34';\N;'1';'639';\N;\N;\N;\N;\N;'img/HD_5_1_.jpg';\N;\N;\N;\N;\N;'84';\N;'2014-06-06 18:38:52'
'ADMTRXEG43HU0';'TRAIN-XAB-HD';'TRAIN';'XAB';'HD';'adaptive_train';'2';'35';\N;'1';'1433';\N;\N;\N;\N;\N;'img/HD_2_4_.jpg';\N;\N;\N;\N;\N;'66';\N;'2014-06-06 18:38:52'
'ADMTRXEG43HU0';'TRAIN-XAB-HD';'TRAIN';'XAB';'HD';'adaptive_train';'3';'0';\N;'1';'3179';\N;\N;\N;\N;\N;'img/HD_5_4_.jpg';\N;\N;\N;\N;\N;'66';\N;'2014-06-06 18:38:52'
'ADMTRXEG43HU0';'TRAIN-XAB-HD';'TRAIN';'XAB';'HD';'adaptive_train';'3';'1';\N;'1';'737';\N;\N;\N;\N;\N;'img/HD_5_6_.jpg';\N;\N;\N;\N;\N;'66';\N;'2014-06-06 18:38:52'
'ADMTRXEG43HU0';'TRAIN-XAB-HD';'TRAIN';'XAB';'HD';'adaptive_train';'3';'2';\N;'1';'926';\N;\N;\N;\N;\N;'img/HD_6_5_.jpg';\N;\N;\N;\N;\N;'66';\N;'2014-06-06 18:38:52'
'ADMTRXEG43HU0';'TRAIN-XAB-HD';'TRAIN';'XAB';'HD';'adaptive_train';'3';'3';\N;'1';'1226';\N;\N;\N;\N;\N;'img/HD_2_4_.jpg';\N;\N;\N;\N;\N;'66';\N;'2014-06-06 18:38:52'
'ADMTRXEG43HU0';'TRAIN-XAB-HD';'TRAIN';'XAB';'HD';'adaptive_train';'3';'4';\N;'1';'726';\N;\N;\N;\N;\N;'img/HD_2_2_.jpg';\N;\N;\N;\N;\N;'84';\N;'2014-06-06 18:38:52'
'ADMTRXEG43HU0';'TRAIN-XAB-HD';'TRAIN';'XAB';'HD';'adaptive_train';'3';'5';\N;'1';'591';\N;\N;\N;\N;\N;'img/HD_4_2_.jpg';\N;\N;\N;\N;\N;'84';\N;'2014-06-06 18:38:52'
'ADMTRXEG43HU0';'TRAIN-XAB-HD';'TRAIN';'XAB';'HD';'adaptive_train';'3';'6';\N;'1';'707';\N;\N;\N;\N;\N;'img/HD_1_5_.jpg';\N;\N;\N;\N;\N;'66';\N;'2014-06-06 18:38:52'
'ADMTRXEG43HU0';'TRAIN-XAB-HD';'TRAIN';'XAB';'HD';'adaptive_train';'3';'7';\N;'1';'685';\N;\N;\N;\N;\N;'img/HD_6_3_.jpg';\N;\N;\N;\N;\N;'84';\N;'2014-06-06 18:38:52'
'ADMTRXEG43HU0';'TRAIN-XAB-HD';'TRAIN';'XAB';'HD';'adaptive_train';'3';'8';\N;'1';'694';\N;\N;\N;\N;\N;'img/HD_6_2_.jpg';\N;\N;\N;\N;\N;'84';\N;'2014-06-06 18:38:52'
'ADMTRXEG43HU0';'TRAIN-XAB-HD';'TRAIN';'XAB';'HD';'adaptive_train';'3';'9';\N;'1';'631';\N;\N;\N;\N;\N;'img/HD_5_1_.jpg';\N;\N;\N;\N;\N;'84';\N;'2014-06-06 18:38:52'
'ADMTRXEG43HU0';'TRAIN-XAB-HD';'TRAIN';'XAB';'HD';'adaptive_train';'3';'10';\N;'1';'1445';\N;\N;\N;\N;\N;'img/HD_3_2_.jpg';\N;\N;\N;\N;\N;'84';\N;'2014-06-06 18:38:52'
'ADMTRXEG43HU0';'TRAIN-XAB-HD';'TRAIN';'XAB';'HD';'adaptive_train';'3';'11';\N;'1';'674';\N;\N;\N;\N;\N;'img/HD_6_4_.jpg';\N;\N;\N;\N;\N;'66';\N;'2014-06-06 18:38:52'
'ADMTRXEG43HU0';'TRAIN-XAB-HD';'TRAIN';'XAB';'HD';'adaptive_train';'3';'12';\N;'1';'604';\N;\N;\N;\N;\N;'img/HD_5_5_.jpg';\N;\N;\N;\N;\N;'66';\N;'2014-06-06 18:38:52'
'ADMTRXEG43HU0';'TRAIN-XAB-HD';'TRAIN';'XAB';'HD';'adaptive_train';'3';'13';\N;'1';'710';\N;\N;\N;\N;\N;'img/HD_4_5_.jpg';\N;\N;\N;\N;\N;'66';\N;'2014-06-06 18:38:52'
'ADMTRXEG43HU0';'TRAIN-XAB-HD';'TRAIN';'XAB';'HD';'adaptive_train';'3';'14';\N;'1';'1070';\N;\N;\N;\N;\N;'img/HD_2_3_.jpg';\N;\N;\N;\N;\N;'84';\N;'2014-06-06 18:38:52'
'ADMTRXEG43HU0';'TRAIN-XAB-HD';'TRAIN';'XAB';'HD';'adaptive_train';'3';'15';\N;'1';'623';\N;\N;\N;\N;\N;'img/HD_3_6_.jpg';\N;\N;\N;\N;\N;'66';\N;'2014-06-06 18:38:52'
'ADMTRXEG43HU0';'TRAIN-XAB-HD';'TRAIN';'XAB';'HD';'adaptive_train';'3';'16';\N;'1';'631';\N;\N;\N;\N;\N;'img/HD_6_1_.jpg';\N;\N;\N;\N;\N;'84';\N;'2014-06-06 18:38:52'
'ADMTRXEG43HU0';'TRAIN-XAB-HD';'TRAIN';'XAB';'HD';'adaptive_train';'3';'17';\N;'1';'755';\N;\N;\N;\N;\N;'img/HD_1_6_.jpg';\N;\N;\N;\N;\N;'66';\N;'2014-06-06 18:38:52'
'ADMTRXEG43HU0';'TRAIN-XAB-HD';'TRAIN';'XAB';'HD';'adaptive_train';'3';'18';\N;'1';'693';\N;\N;\N;\N;\N;'img/HD_2_6_.jpg';\N;\N;\N;\N;\N;'66';\N;'2014-06-06 18:38:52'
'ADMTRXEG43HU0';'TRAIN-XAB-HD';'TRAIN';'XAB';'HD';'adaptive_train';'3';'19';\N;'1';'935';\N;\N;\N;\N;\N;'img/HD_1_3_.jpg';\N;\N;\N;\N;\N;'84';\N;'2014-06-06 18:38:52'
'ADMTRXEG43HU0';'TRAIN-XAB-HD';'TRAIN';'XAB';'HD';'adaptive_train';'3';'20';\N;'1';'699';\N;\N;\N;\N;\N;'img/HD_3_1_.jpg';\N;\N;\N;\N;\N;'84';\N;'2014-06-06 18:38:52'
'ADMTRXEG43HU0';'TRAIN-XAB-HD';'TRAIN';'XAB';'HD';'adaptive_train';'3';'21';\N;'1';'853';\N;\N;\N;\N;\N;'img/HD_1_2_.jpg';\N;\N;\N;\N;\N;'84';\N;'2014-06-06 18:38:52'
'ADMTRXEG43HU0';'TRAIN-XAB-HD';'TRAIN';'XAB';'HD';'adaptive_train';'3';'22';\N;'1';'851';\N;\N;\N;\N;\N;'img/HD_4_3_.jpg';\N;\N;\N;\N;\N;'84';\N;'2014-06-06 18:38:52'
'ADMTRXEG43HU0';'TRAIN-XAB-HD';'TRAIN';'XAB';'HD';'adaptive_train';'3';'23';\N;'1';'686';\N;\N;\N;\N;\N;'img/HD_5_2_.jpg';\N;\N;\N;\N;\N;'84';\N;'2014-06-06 18:38:52'
'ADMTRXEG43HU0';'TRAIN-XAB-HD';'TRAIN';'XAB';'HD';'adaptive_train';'3';'24';\N;'1';'746';\N;\N;\N;\N;\N;'img/HD_6_6_.jpg';\N;\N;\N;\N;\N;'66';\N;'2014-06-06 18:38:52'
'ADMTRXEG43HU0';'TRAIN-XAB-HD';'TRAIN';'XAB';'HD';'adaptive_train';'3';'25';\N;'1';'786';\N;\N;\N;\N;\N;'img/HD_2_5_.jpg';\N;\N;\N;\N;\N;'66';\N;'2014-06-06 18:38:52'
'ADMTRXEG43HU0';'TRAIN-XAB-HD';'TRAIN';'XAB';'HD';'adaptive_train';'3';'26';\N;'1';'860';\N;\N;\N;\N;\N;'img/HD_5_3_.jpg';\N;\N;\N;\N;\N;'84';\N;'2014-06-06 18:38:52'
'ADMTRXEG43HU0';'TRAIN-XAB-HD';'TRAIN';'XAB';'HD';'adaptive_train';'3';'27';\N;'1';'704';\N;\N;\N;\N;\N;'img/HD_3_5_.jpg';\N;\N;\N;\N;\N;'66';\N;'2014-06-06 18:38:52'
'ADMTRXEG43HU0';'TRAIN-XAB-HD';'TRAIN';'XAB';'HD';'adaptive_train';'3';'28';\N;'1';'1040';\N;\N;\N;\N;\N;'img/HD_1_4_.jpg';\N;\N;\N;\N;\N;'66';\N;'2014-06-06 18:38:52'
'ADMTRXEG43HU0';'TRAIN-XAB-HD';'TRAIN';'XAB';'HD';'adaptive_train';'3';'29';\N;'1';'857';\N;\N;\N;\N;\N;'img/HD_4_4_.jpg';\N;\N;\N;\N;\N;'66';\N;'2014-06-06 18:38:52'
'ADMTRXEG43HU0';'TRAIN-XAB-HD';'TRAIN';'XAB';'HD';'adaptive_train';'3';'30';\N;'1';'732';\N;\N;\N;\N;\N;'img/HD_1_1_.jpg';\N;\N;\N;\N;\N;'84';\N;'2014-06-06 18:38:52'
'ADMTRXEG43HU0';'TRAIN-XAB-HD';'TRAIN';'XAB';'HD';'adaptive_train';'3';'31';\N;'1';'964';\N;\N;\N;\N;\N;'img/HD_3_3_.jpg';\N;\N;\N;\N;\N;'84';\N;'2014-06-06 18:38:52'
'ADMTRXEG43HU0';'TRAIN-XAB-HD';'TRAIN';'XAB';'HD';'adaptive_train';'3';'32';\N;'1';'1891';\N;\N;\N;\N;\N;'img/HD_3_4_.jpg';\N;\N;\N;\N;\N;'66';\N;'2014-06-06 18:38:52'
'ADMTRXEG43HU0';'TRAIN-XAB-HD';'TRAIN';'XAB';'HD';'adaptive_train';'3';'33';\N;'1';'1416';\N;\N;\N;\N;\N;'img/HD_4_6_.jpg';\N;\N;\N;\N;\N;'66';\N;'2014-06-06 18:38:52'
'ADMTRXEG43HU0';'TRAIN-XAB-HD';'TRAIN';'XAB';'HD';'adaptive_train';'3';'34';\N;'1';'667';\N;\N;\N;\N;\N;'img/HD_2_1_.jpg';\N;\N;\N;\N;\N;'84';\N;'2014-06-06 18:38:52'
'ADMTRXEG43HU0';'TRAIN-XAB-HD';'TRAIN';'XAB';'HD';'adaptive_train';'3';'35';\N;'1';'591';\N;\N;\N;\N;\N;'img/HD_4_1_.jpg';\N;\N;\N;\N;\N;'84';\N;'2014-06-06 18:38:52'
'ADMTRXEG43HU0';'TRAIN-XAB-HD';'TRAIN';'XAB';'HD';'adaptive_train';'4';'0';\N;'0';'4457';\N;\N;\N;\N;\N;'img/HD_3_3_.jpg';\N;\N;\N;\N;\N;'66';\N;'2014-06-06 18:38:52'
'ADMTRXEG43HU0';'TRAIN-XAB-HD';'TRAIN';'XAB';'HD';'adaptive_train';'4';'1';\N;'1';'1133';\N;\N;\N;\N;\N;'img/HD_3_4_.jpg';\N;\N;\N;\N;\N;'66';\N;'2014-06-06 18:38:52'
'ADMTRXEG43HU0';'TRAIN-XAB-HD';'TRAIN';'XAB';'HD';'adaptive_train';'4';'2';\N;'1';'1044';\N;\N;\N;\N;\N;'img/HD_5_4_.jpg';\N;\N;\N;\N;\N;'66';\N;'2014-06-06 18:38:52'
'ADMTRXEG43HU0';'TRAIN-XAB-HD';'TRAIN';'XAB';'HD';'adaptive_train';'4';'3';\N;'1';'836';\N;\N;\N;\N;\N;'img/HD_6_4_.jpg';\N;\N;\N;\N;\N;'66';\N;'2014-06-06 18:38:52'
'ADMTRXEG43HU0';'TRAIN-XAB-HD';'TRAIN';'XAB';'HD';'adaptive_train';'4';'4';\N;'0';'1637';\N;\N;\N;\N;\N;'img/HD_2_3_.jpg';\N;\N;\N;\N;\N;'66';\N;'2014-06-06 18:38:52'
'ADMTRXEG43HU0';'TRAIN-XAB-HD';'TRAIN';'XAB';'HD';'adaptive_train';'4';'5';\N;'1';'856';\N;\N;\N;\N;\N;'img/HD_6_6_.jpg';\N;\N;\N;\N;\N;'66';\N;'2014-06-06 18:38:52'
'ADMTRXEG43HU0';'TRAIN-XAB-HD';'TRAIN';'XAB';'HD';'adaptive_train';'4';'6';\N;'1';'792';\N;\N;\N;\N;\N;'img/HD_1_4_.jpg';\N;\N;\N;\N;\N;'66';\N;'2014-06-06 18:38:52'
'ADMTRXEG43HU0';'TRAIN-XAB-HD';'TRAIN';'XAB';'HD';'adaptive_train';'5';'0';\N;'1';'2676';\N;\N;\N;\N;\N;'img/HD_3_4_.jpg';\N;\N;\N;\N;\N;'66';\N;'2014-06-06 18:38:52'
'ADMTRXEG43HU0';'TRAIN-XAB-HD';'TRAIN';'XAB';'HD';'adaptive_train';'5';'1';\N;'1';'2057';\N;\N;\N;\N;\N;'img/HD_2_3_.jpg';\N;\N;\N;\N;\N;'84';\N;'2014-06-06 18:38:52'
'ADMTRXEG43HU0';'TRAIN-XAB-HD';'TRAIN';'XAB';'HD';'adaptive_train';'5';'2';\N;'1';'766';\N;\N;\N;\N;\N;'img/HD_1_4_.jpg';\N;\N;\N;\N;\N;'66';\N;'2014-06-06 18:38:52'
'ADMTRXEG43HU0';'TRAIN-XAB-HD';'TRAIN';'XAB';'HD';'adaptive_train';'5';'3';\N;'1';'1080';\N;\N;\N;\N;\N;'img/HD_5_4_.jpg';\N;\N;\N;\N;\N;'66';\N;'2014-06-06 18:38:52'
'ADMTRXEG43HU0';'TRAIN-XAB-HD';'TRAIN';'XAB';'HD';'adaptive_train';'5';'4';\N;'1';'1404';\N;\N;\N;\N;\N;'img/HD_3_3_.jpg';\N;\N;\N;\N;\N;'84';\N;'2014-06-06 18:38:52'
'ADMTRXEG43HU0';'TRAIN-XAB-HD';'TRAIN';'XAB';'HD';'adaptive_train';'6';'0';\N;'1';'2747';\N;\N;\N;\N;\N;'img/HD_3_3_.jpg';\N;\N;\N;\N;\N;'84';\N;'2014-06-06 18:38:52'
'ADMTRXEG43HU0';'TRAIN-XAB-HD';'TRAIN';'XAB';'HD';'adaptive_train';'6';'1';\N;'1';'1048';\N;\N;\N;\N;\N;'img/HD_1_3_.jpg';\N;\N;\N;\N;\N;'84';\N;'2014-06-06 18:38:52'
'ADMTRXEG43HU0';'TRAIN-XAB-HD';'TRAIN';'XAB';'HD';'adaptive_train';'6';'2';\N;'1';'806';\N;\N;\N;\N;\N;'img/HD_1_4_.jpg';\N;\N;\N;\N;\N;'66';\N;'2014-06-06 18:38:52'
'ADMTRXEG43HU0';'TRAIN-XAB-HD';'TRAIN';'XAB';'HD';'adaptive_train';'6';'3';\N;'1';'644';\N;\N;\N;\N;\N;'img/HD_2_2_.jpg';\N;\N;\N;\N;\N;'84';\N;'2014-06-06 18:38:52'
'ADMTRXEG43HU0';'TRAIN-XAB-HD';'TRAIN';'XAB';'HD';'adaptive_train';'6';'4';\N;'1';'883';\N;\N;\N;\N;\N;'img/HD_2_3_.jpg';\N;\N;\N;\N;\N;'84';\N;'2014-06-06 18:38:52'
'ADMTRXEG43HU0';'TRAIN-XAB-HD';'TRAIN';'XAB';'HD';'adaptive_train';'7';'0';\N;'1';'2228';\N;\N;\N;\N;\N;'img/HD_4_5_.jpg';\N;\N;\N;\N;\N;'66';\N;'2014-06-06 18:38:52'
'ADMTRXEG43HU0';'TRAIN-XAB-HD';'TRAIN';'XAB';'HD';'adaptive_train';'7';'1';\N;'1';'4348';\N;\N;\N;\N;\N;'img/HD_3_3_.jpg';\N;\N;\N;\N;\N;'84';\N;'2014-06-06 18:38:52'
'ADMTRXEG43HU0';'TRAIN-XAB-HD';'TRAIN';'XAB';'HD';'adaptive_train';'7';'2';\N;'1';'592';\N;\N;\N;\N;\N;'img/HD_1_6_.jpg';\N;\N;\N;\N;\N;'66';\N;'2014-06-06 18:38:52'
'ADMTRXEG43HU0';'TRAIN-XAB-HD';'TRAIN';'XAB';'HD';'adaptive_train';'7';'3';\N;'1';'618';\N;\N;\N;\N;\N;'img/HD_2_3_.jpg';\N;\N;\N;\N;\N;'84';\N;'2014-06-06 18:38:52'
'ADMTRXEG43HU0';'TRAIN-XAB-HD';'TRAIN';'XAB';'HD';'adaptive_train';'7';'4';\N;'1';'653';\N;\N;\N;\N;\N;'img/HD_1_5_.jpg';\N;\N;\N;\N;\N;'66';\N;'2014-06-06 18:38:52'
'ADMTRXEG43HU0';'TRAIN-XAB-HD';'TRAIN';'XAB';'HD';'adaptive_train';'8';'0';\N;'1';'2502';\N;\N;\N;\N;\N;'img/HD_2_3_.jpg';\N;\N;\N;\N;\N;'84';\N;'2014-06-06 18:38:52'
'ADMTRXEG43HU0';'TRAIN-XAB-HD';'TRAIN';'XAB';'HD';'adaptive_train';'8';'1';\N;'1';'1034';\N;\N;\N;\N;\N;'img/HD_6_5_.jpg';\N;\N;\N;\N;\N;'66';\N;'2014-06-06 18:38:52'
'ADMTRXEG43HU0';'TRAIN-XAB-HD';'TRAIN';'XAB';'HD';'adaptive_train';'8';'2';\N;'1';'1457';\N;\N;\N;\N;\N;'img/HD_3_1_.jpg';\N;\N;\N;\N;\N;'84';\N;'2014-06-06 18:38:52'
'ADMTRXEG43HU0';'TRAIN-XAB-HD';'TRAIN';'XAB';'HD';'adaptive_train';'8';'3';\N;'1';'1092';\N;\N;\N;\N;\N;'img/HD_3_4_.jpg';\N;\N;\N;\N;\N;'66';\N;'2014-06-06 18:38:52'
'ADMTRXEG43HU0';'TRAIN-XAB-HD';'TRAIN';'XAB';'HD';'adaptive_train';'8';'4';\N;'1';'1253';\N;\N;\N;\N;\N;'img/HD_3_3_.jpg';\N;\N;\N;\N;\N;'84';\N;'2014-06-06 18:38:52'
'ADMTRXEG43HU0';'TRAIN-XAB-HD';'TRAIN';'XAB';'HD';'text';\N;'0';\N;\N;'8286';\N;\N;\N;\N;\N;\N;\N;\N;\N;\N;\N;\N;\N;'2014-06-06 18:38:52'
'ADMTRXEG43HU0';'TRAIN-XAB-HD';'TRAIN';'XAB';'HD';'text';\N;'0';\N;\N;'16007';\N;\N;\N;\N;\N;\N;\N;\N;\N;\N;\N;\N;\N;'2014-06-06 18:38:52'
'ADMTRXEG43HU0';'TRAIN-XAB-HD';'TRAIN';'XAB';'HD';'single-stim';\N;'0';\N;\N;'1144';\N;\N;\N;\N;\N;'img/HD_6_3_.jpg';\N;\N;\N;\N;\N;'84';\N;'2014-06-06 18:38:52'
'ADMTRXEG43HU0';'TRAIN-XAB-HD';'TRAIN';'XAB';'HD';'single-stim';\N;'1';\N;\N;'912';\N;\N;\N;\N;\N;'img/HD_2_3_.jpg';\N;\N;\N;\N;\N;'84';\N;'2014-06-06 18:38:52'
'ADMTRXEG43HU0';'TRAIN-XAB-HD';'TRAIN';'XAB';'HD';'single-stim';\N;'2';\N;\N;'1020';\N;\N;\N;\N;\N;'img/HD_3_1_.jpg';\N;\N;\N;\N;\N;'84';\N;'2014-06-06 18:38:52'
'ADMTRXEG43HU0';'TRAIN-XAB-HD';'TRAIN';'XAB';'HD';'single-stim';\N;'3';\N;\N;'754';\N;\N;\N;\N;\N;'img/HD_2_2_.jpg';\N;\N;\N;\N;\N;'84';\N;'2014-06-06 18:38:52'
'ADMTRXEG43HU0';'TRAIN-XAB-HD';'TRAIN';'XAB';'HD';'single-stim';\N;'4';\N;\N;'797';\N;\N;\N;\N;\N;'img/HD_1_3_.jpg';\N;\N;\N;\N;\N;'84';\N;'2014-06-06 18:38:52'
'ADMTRXEG43HU0';'TRAIN-XAB-HD';'TRAIN';'XAB';'HD';'single-stim';\N;'5';\N;\N;'649';\N;\N;\N;\N;\N;'img/HD_1_4_.jpg';\N;\N;\N;\N;\N;'66';\N;'2014-06-06 18:38:52'
'ADMTRXEG43HU0';'TRAIN-XAB-HD';'TRAIN';'XAB';'HD';'single-stim';\N;'6';\N;\N;'489';\N;\N;\N;\N;\N;'img/HD_3_2_.jpg';\N;\N;\N;\N;\N;'84';\N;'2014-06-06 18:38:52'
'ADMTRXEG43HU0';'TRAIN-XAB-HD';'TRAIN';'XAB';'HD';'single-stim';\N;'7';\N;\N;'396';\N;\N;\N;\N;\N;'img/HD_4_1_.jpg';\N;\N;\N;\N;\N;'84';\N;'2014-06-06 18:38:52'
'ADMTRXEG43HU0';'TRAIN-XAB-HD';'TRAIN';'XAB';'HD';'single-stim';\N;'8';\N;\N;'411';\N;\N;\N;\N;\N;'img/HD_2_1_.jpg';\N;\N;\N;\N;\N;'84';\N;'2014-06-06 18:38:52'
'ADMTRXEG43HU0';'TRAIN-XAB-HD';'TRAIN';'XAB';'HD';'single-stim';\N;'9';\N;\N;'539';\N;\N;\N;\N;\N;'img/HD_3_6_.jpg';\N;\N;\N;\N;\N;'66';\N;'2014-06-06 18:38:52'
'ADMTRXEG43HU0';'TRAIN-XAB-HD';'TRAIN';'XAB';'HD';'single-stim';\N;'10';\N;\N;'445';\N;\N;\N;\N;\N;'img/HD_5_3_.jpg';\N;\N;\N;\N;\N;'84';\N;'2014-06-06 18:38:52'
'ADMTRXEG43HU0';'TRAIN-XAB-HD';'TRAIN';'XAB';'HD';'single-stim';\N;'11';\N;\N;'771';\N;\N;\N;\N;\N;'img/HD_3_4_.jpg';\N;\N;\N;\N;\N;'66';\N;'2014-06-06 18:38:52'
'ADMTRXEG43HU0';'TRAIN-XAB-HD';'TRAIN';'XAB';'HD';'single-stim';\N;'12';\N;\N;'885';\N;\N;\N;\N;\N;'img/HD_6_4_.jpg';\N;\N;\N;\N;\N;'66';\N;'2014-06-06 18:38:52'
'ADMTRXEG43HU0';'TRAIN-XAB-HD';'TRAIN';'XAB';'HD';'single-stim';\N;'13';\N;\N;'496';\N;\N;\N;\N;\N;'img/HD_5_5_.jpg';\N;\N;\N;\N;\N;'66';\N;'2014-06-06 18:38:52'
'ADMTRXEG43HU0';'TRAIN-XAB-HD';'TRAIN';'XAB';'HD';'single-stim';\N;'14';\N;\N;'427';\N;\N;\N;\N;\N;'img/HD_6_6_.jpg';\N;\N;\N;\N;\N;'66';\N;'2014-06-06 18:38:52'
'ADMTRXEG43HU0';'TRAIN-XAB-HD';'TRAIN';'XAB';'HD';'single-stim';\N;'15';\N;\N;'438';\N;\N;\N;\N;\N;'img/HD_6_5_.jpg';\N;\N;\N;\N;\N;'66';\N;'2014-06-06 18:38:52'
'ADMTRXEG43HU0';'TRAIN-XAB-HD';'TRAIN';'XAB';'HD';'single-stim';\N;'16';\N;\N;'514';\N;\N;\N;\N;\N;'img/HD_4_2_.jpg';\N;\N;\N;\N;\N;'84';\N;'2014-06-06 18:38:52'
'ADMTRXEG43HU0';'TRAIN-XAB-HD';'TRAIN';'XAB';'HD';'single-stim';\N;'17';\N;\N;'543';\N;\N;\N;\N;\N;'img/HD_3_3_.jpg';\N;\N;\N;\N;\N;'84';\N;'2014-06-06 18:38:52'
'ADMTRXEG43HU0';'TRAIN-XAB-HD';'TRAIN';'XAB';'HD';'single-stim';\N;'18';\N;\N;'470';\N;\N;\N;\N;\N;'img/HD_3_5_.jpg';\N;\N;\N;\N;\N;'66';\N;'2014-06-06 18:38:52'
'ADMTRXEG43HU0';'TRAIN-XAB-HD';'TRAIN';'XAB';'HD';'single-stim';\N;'19';\N;\N;'434';\N;\N;\N;\N;\N;'img/HD_2_5_.jpg';\N;\N;\N;\N;\N;'66';\N;'2014-06-06 18:38:52'
'ADMTRXEG43HU0';'TRAIN-XAB-HD';'TRAIN';'XAB';'HD';'single-stim';\N;'20';\N;\N;'440';\N;\N;\N;\N;\N;'img/HD_4_5_.jpg';\N;\N;\N;\N;\N;'66';\N;'2014-06-06 18:38:52'
'ADMTRXEG43HU0';'TRAIN-XAB-HD';'TRAIN';'XAB';'HD';'single-stim';\N;'21';\N;\N;'525';\N;\N;\N;\N;\N;'img/HD_6_2_.jpg';\N;\N;\N;\N;\N;'84';\N;'2014-06-06 18:38:52'
'ADMTRXEG43HU0';'TRAIN-XAB-HD';'TRAIN';'XAB';'HD';'single-stim';\N;'22';\N;\N;'516';\N;\N;\N;\N;\N;'img/HD_1_2_.jpg';\N;\N;\N;\N;\N;'84';\N;'2014-06-06 18:38:52'
'ADMTRXEG43HU0';'TRAIN-XAB-HD';'TRAIN';'XAB';'HD';'single-stim';\N;'23';\N;\N;'436';\N;\N;\N;\N;\N;'img/HD_6_1_.jpg';\N;\N;\N;\N;\N;'84';\N;'2014-06-06 18:38:52'
'ADMTRXEG43HU0';'TRAIN-XAB-HD';'TRAIN';'XAB';'HD';'single-stim';\N;'24';\N;\N;'540';\N;\N;\N;\N;\N;'img/HD_2_6_.jpg';\N;\N;\N;\N;\N;'66';\N;'2014-06-06 18:38:52'
'ADMTRXEG43HU0';'TRAIN-XAB-HD';'TRAIN';'XAB';'HD';'single-stim';\N;'25';\N;\N;'1954';\N;\N;\N;\N;\N;'img/HD_5_4_.jpg';\N;\N;\N;\N;\N;'84';\N;'2014-06-06 18:38:52'
'ADMTRXEG43HU0';'TRAIN-XAB-HD';'TRAIN';'XAB';'HD';'single-stim';\N;'26';\N;\N;'524';\N;\N;\N;\N;\N;'img/HD_4_6_.jpg';\N;\N;\N;\N;\N;'66';\N;'2014-06-06 18:38:52'
'ADMTRXEG43HU0';'TRAIN-XAB-HD';'TRAIN';'XAB';'HD';'single-stim';\N;'27';\N;\N;'468';\N;\N;\N;\N;\N;'img/HD_5_2_.jpg';\N;\N;\N;\N;\N;'84';\N;'2014-06-06 18:38:52'
'ADMTRXEG43HU0';'TRAIN-XAB-HD';'TRAIN';'XAB';'HD';'single-stim';\N;'28';\N;\N;'429';\N;\N;\N;\N;\N;'img/HD_5_6_.jpg';\N;\N;\N;\N;\N;'66';\N;'2014-06-06 18:38:52'
'ADMTRXEG43HU0';'TRAIN-XAB-HD';'TRAIN';'XAB';'HD';'single-stim';\N;'29';\N;\N;'539';\N;\N;\N;\N;\N;'img/HD_1_6_.jpg';\N;\N;\N;\N;\N;'66';\N;'2014-06-06 18:38:52'
'ADMTRXEG43HU0';'TRAIN-XAB-HD';'TRAIN';'XAB';'HD';'single-stim';\N;'30';\N;\N;'469';\N;\N;\N;\N;\N;'img/HD_4_3_.jpg';\N;\N;\N;\N;\N;'84';\N;'2014-06-06 18:38:52'
'ADMTRXEG43HU0';'TRAIN-XAB-HD';'TRAIN';'XAB';'HD';'single-stim';\N;'31';\N;\N;'855';\N;\N;\N;\N;\N;'img/HD_2_4_.jpg';\N;\N;\N;\N;\N;'84';\N;'2014-06-06 18:38:52'
'ADMTRXEG43HU0';'TRAIN-XAB-HD';'TRAIN';'XAB';'HD';'single-stim';\N;'32';\N;\N;'503';\N;\N;\N;\N;\N;'img/HD_5_1_.jpg';\N;\N;\N;\N;\N;'84';\N;'2014-06-06 18:38:52'
'ADMTRXEG43HU0';'TRAIN-XAB-HD';'TRAIN';'XAB';'HD';'single-stim';\N;'33';\N;\N;'604';\N;\N;\N;\N;\N;'img/HD_4_4_.jpg';\N;\N;\N;\N;\N;'84';\N;'2014-06-06 18:38:52'
'ADMTRXEG43HU0';'TRAIN-XAB-HD';'TRAIN';'XAB';'HD';'single-stim';\N;'34';\N;\N;'441';\N;\N;\N;\N;\N;'img/HD_1_5_.jpg';\N;\N;\N;\N;\N;'66';\N;'2014-06-06 18:38:52'
'ADMTRXEG43HU0';'TRAIN-XAB-HD';'TRAIN';'XAB';'HD';'single-stim';\N;'35';\N;\N;'478';\N;\N;\N;\N;\N;'img/HD_1_1_.jpg';\N;\N;\N;\N;\N;'84';\N;'2014-06-06 18:38:52'
'ADMTRXEG43HU0';'TRAIN-XAB-HD';'TRAIN';'XAB';'HD';'text';\N;'0';\N;\N;'35547';\N;\N;\N;\N;\N;\N;\N;\N;\N;\N;\N;\N;\N;'2014-06-06 18:38:52'
'ADMTRXEG43HU0';'TRAIN-XAB-HD';'TRAIN';'XAB';'HD';'xab';'0';'0';\N;'1';'939';\N;'2';'1';'1';'ww';\N;\N;'img/HD_2_1_.jpg';'img/HD_2_1_.jpg';'img/HD_1_2_.jpg';\N;'90';\N;'2014-06-06 18:38:52'
'ADMTRXEG43HU0';'TRAIN-XAB-HD';'TRAIN';'XAB';'HD';'xab';'0';'1';\N;'1';'594';\N;'2';'2';'0';'pw';\N;\N;'img/HD_5_4_.jpg';'img/HD_5_4_.jpg';'img/HD_5_2_.jpg';\N;'77';\N;'2014-06-06 18:38:52'
'ADMTRXEG43HU0';'TRAIN-XAB-HD';'TRAIN';'XAB';'HD';'xab';'0';'2';\N;'1';'581';\N;'1';'1';'0';'pp';\N;\N;'img/HD_5_6_.jpg';'img/HD_5_6_.jpg';'img/HD_5_5_.jpg';\N;'77';\N;'2014-06-06 18:38:52'
'ADMTRXEG43HU0';'TRAIN-XAB-HD';'TRAIN';'XAB';'HD';'xab';'0';'3';\N;'1';'570';\N;'2';'1';'1';'pw';\N;\N;'img/HD_4_3_.jpg';'img/HD_4_3_.jpg';'img/HD_5_4_.jpg';\N;'77';\N;'2014-06-06 18:38:52'
'ADMTRXEG43HU0';'TRAIN-XAB-HD';'TRAIN';'XAB';'HD';'xab';'0';'4';\N;'1';'508';\N;'1';'1';'0';'ww';\N;\N;'img/HD_5_2_.jpg';'img/HD_5_2_.jpg';'img/HD_5_1_.jpg';\N;'90';\N;'2014-06-06 18:38:52'
'ADMTRXEG43HU0';'TRAIN-XAB-HD';'TRAIN';'XAB';'HD';'xab';'0';'5';\N;'0';'597';\N;'3';'1';'2';'pp';\N;\N;'img/HD_4_6_.jpg';'img/HD_4_6_.jpg';'img/HD_6_5_.jpg';\N;'77';\N;'2014-06-06 18:38:52'
'ADMTRXEG43HU0';'TRAIN-XAB-HD';'TRAIN';'XAB';'HD';'xab';'0';'6';\N;'0';'554';\N;'1';'0';'1';'pp';\N;\N;'img/HD_5_5_.jpg';'img/HD_5_5_.jpg';'img/HD_6_5_.jpg';\N;'77';\N;'2014-06-06 18:38:52'
'ADMTRXEG43HU0';'TRAIN-XAB-HD';'TRAIN';'XAB';'HD';'xab';'0';'7';\N;'1';'647';\N;'1';'0';'1';'ww';\N;\N;'img/HD_3_3_.jpg';'img/HD_3_3_.jpg';'img/HD_2_3_.jpg';\N;'77';\N;'2014-06-06 18:38:52'
'ADMTRXEG43HU0';'TRAIN-XAB-HD';'TRAIN';'XAB';'HD';'xab';'0';'8';\N;'1';'571';\N;'3';'3';'0';'pw';\N;\N;'img/HD_3_5_.jpg';'img/HD_3_5_.jpg';'img/HD_3_2_.jpg';\N;'77';\N;'2014-06-06 18:38:52'
'ADMTRXEG43HU0';'TRAIN-XAB-HD';'TRAIN';'XAB';'HD';'xab';'0';'9';\N;'1';'589';\N;'3';'1';'2';'ww';\N;\N;'img/HD_1_2_.jpg';'img/HD_1_2_.jpg';'img/HD_3_3_.jpg';\N;'90';\N;'2014-06-06 18:38:52'
'ADMTRXEG43HU0';'TRAIN-XAB-HD';'TRAIN';'XAB';'HD';'xab';'0';'10';\N;'1';'551';\N;'3';'1';'2';'pw';\N;\N;'img/HD_3_3_.jpg';'img/HD_3_3_.jpg';'img/HD_1_4_.jpg';\N;'77';\N;'2014-06-06 18:38:52'
'ADMTRXEG43HU0';'TRAIN-XAB-HD';'TRAIN';'XAB';'HD';'xab';'0';'11';\N;'1';'914';\N;'1';'1';'0';'pw';\N;\N;'img/HD_1_3_.jpg';'img/HD_1_3_.jpg';'img/HD_1_4_.jpg';\N;'90';\N;'2014-06-06 18:38:52'
'ADMTRXEG43HU0';'TRAIN-XAB-HD';'TRAIN';'XAB';'HD';'xab';'0';'12';\N;'0';'581';\N;'3';'2';'1';'pp';\N;\N;'img/HD_4_4_.jpg';'img/HD_4_4_.jpg';'img/HD_5_6_.jpg';\N;'77';\N;'2014-06-06 18:38:52'
'ADMTRXEG43HU0';'TRAIN-XAB-HD';'TRAIN';'XAB';'HD';'xab';'0';'13';\N;'1';'450';\N;'1';'1';'0';'pw';\N;\N;'img/HD_1_4_.jpg';'img/HD_1_4_.jpg';'img/HD_1_3_.jpg';\N;'90';\N;'2014-06-06 18:38:52'
'ADMTRXEG43HU0';'TRAIN-XAB-HD';'TRAIN';'XAB';'HD';'xab';'0';'14';\N;'0';'784';\N;'3';'1';'2';'pw';\N;\N;'img/HD_4_4_.jpg';'img/HD_4_4_.jpg';'img/HD_6_3_.jpg';\N;'90';\N;'2014-06-06 18:38:52'
'ADMTRXEG43HU0';'TRAIN-XAB-HD';'TRAIN';'XAB';'HD';'xab';'0';'15';\N;'1';'585';\N;'3';'1';'2';'pw';\N;\N;'img/HD_2_4_.jpg';'img/HD_2_4_.jpg';'img/HD_4_3_.jpg';\N;'90';\N;'2014-06-06 18:38:52'
'ADMTRXEG43HU0';'TRAIN-XAB-HD';'TRAIN';'XAB';'HD';'xab';'0';'16';\N;'1';'737';\N;'2';'1';'1';'ww';\N;\N;'img/HD_4_3_.jpg';'img/HD_4_3_.jpg';'img/HD_3_2_.jpg';\N;'77';\N;'2014-06-06 18:38:52'
'ADMTRXEG43HU0';'TRAIN-XAB-HD';'TRAIN';'XAB';'HD';'xab';'0';'17';\N;'1';'624';\N;'2';'2';'0';'pw';\N;\N;'img/HD_4_5_.jpg';'img/HD_4_5_.jpg';'img/HD_4_3_.jpg';\N;'77';\N;'2014-06-06 18:38:52'
'ADMTRXEG43HU0';'TRAIN-XAB-HD';'TRAIN';'XAB';'HD';'xab';'0';'18';\N;'1';'669';\N;'1';'0';'1';'ww';\N;\N;'img/HD_4_2_.jpg';'img/HD_4_2_.jpg';'img/HD_5_2_.jpg';\N;'90';\N;'2014-06-06 18:38:52'
'ADMTRXEG43HU0';'TRAIN-XAB-HD';'TRAIN';'XAB';'HD';'xab';'0';'19';\N;'1';'721';\N;'3';'0';'3';'pp';\N;\N;'img/HD_6_6_.jpg';'img/HD_6_6_.jpg';'img/HD_3_6_.jpg';\N;'77';\N;'2014-06-06 18:38:52'
'ADMTRXEG43HU0';'TRAIN-XAB-HD';'TRAIN';'XAB';'HD';'xab';'0';'20';\N;'0';'446';\N;'1';'1';'0';'ww';\N;\N;'img/HD_6_3_.jpg';'img/HD_6_3_.jpg';'img/HD_6_2_.jpg';\N;'90';\N;'2014-06-06 18:38:52'
'ADMTRXEG43HU0';'TRAIN-XAB-HD';'TRAIN';'XAB';'HD';'xab';'0';'21';\N;'1';'431';\N;'2';'1';'1';'pp';\N;\N;'img/HD_4_6_.jpg';'img/HD_4_6_.jpg';'img/HD_5_5_.jpg';\N;'77';\N;'2014-06-06 18:38:52'
'ADMTRXEG43HU0';'TRAIN-XAB-HD';'TRAIN';'XAB';'HD';'xab';'0';'22';\N;'1';'478';\N;'2';'2';'0';'pw';\N;\N;'img/HD_6_4_.jpg';'img/HD_6_4_.jpg';'img/HD_6_2_.jpg';\N;'77';\N;'2014-06-06 18:38:52'
'ADMTRXEG43HU0';'TRAIN-XAB-HD';'TRAIN';'XAB';'HD';'xab';'0';'23';\N;'1';'518';\N;'2';'1';'1';'pp';\N;\N;'img/HD_4_4_.jpg';'img/HD_4_4_.jpg';'img/HD_5_5_.jpg';\N;'77';\N;'2014-06-06 18:38:52'
'ADMTRXEG43HU0';'TRAIN-XAB-HD';'TRAIN';'XAB';'HD';'xab';'0';'24';\N;'0';'564';\N;'1';'1';'0';'pp';\N;\N;'img/HD_2_6_.jpg';'img/HD_2_6_.jpg';'img/HD_2_5_.jpg';\N;'77';\N;'2014-06-06 18:38:52'
'ADMTRXEG43HU0';'TRAIN-XAB-HD';'TRAIN';'XAB';'HD';'xab';'0';'25';\N;'1';'520';\N;'3';'0';'3';'ww';\N;\N;'img/HD_4_1_.jpg';'img/HD_4_1_.jpg';'img/HD_1_1_.jpg';\N;'77';\N;'2014-06-06 18:38:52'
'ADMTRXEG43HU0';'TRAIN-XAB-HD';'TRAIN';'XAB';'HD';'xab';'0';'26';\N;'1';'621';\N;'3';'2';'1';'ww';\N;\N;'img/HD_5_1_.jpg';'img/HD_5_1_.jpg';'img/HD_6_3_.jpg';\N;'77';\N;'2014-06-06 18:38:52'
'ADMTRXEG43HU0';'TRAIN-XAB-HD';'TRAIN';'XAB';'HD';'xab';'0';'27';\N;'1';'708';\N;'1';'1';'0';'pw';\N;\N;'img/HD_3_3_.jpg';'img/HD_3_3_.jpg';'img/HD_3_4_.jpg';\N;'77';\N;'2014-06-06 18:38:52'
'ADMTRXEG43HU0';'TRAIN-XAB-HD';'TRAIN';'XAB';'HD';'xab';'0';'28';\N;'0';'703';\N;'2';'1';'1';'pp';\N;\N;'img/HD_3_5_.jpg';'img/HD_3_5_.jpg';'img/HD_2_6_.jpg';\N;'77';\N;'2014-06-06 18:38:52'
'ADMTRXEG43HU0';'TRAIN-XAB-HD';'TRAIN';'XAB';'HD';'xab';'0';'29';\N;'1';'502';\N;'2';'0';'2';'ww';\N;\N;'img/HD_5_2_.jpg';'img/HD_5_2_.jpg';'img/HD_3_2_.jpg';\N;'90';\N;'2014-06-06 18:38:52'
'ADMTRXEG43HU0';'TRAIN-XAB-HD';'TRAIN';'XAB';'HD';'xab';'0';'30';\N;'0';'697';\N;'1';'1';'0';'pw';\N;\N;'img/HD_3_4_.jpg';'img/HD_3_4_.jpg';'img/HD_3_3_.jpg';\N;'77';\N;'2014-06-06 18:38:52'
'ADMTRXEG43HU0';'TRAIN-XAB-HD';'TRAIN';'XAB';'HD';'xab';'0';'31';\N;'0';'637';\N;'2';'1';'1';'ww';\N;\N;'img/HD_5_1_.jpg';'img/HD_5_1_.jpg';'img/HD_6_2_.jpg';\N;'77';\N;'2014-06-06 18:38:52'
'ADMTRXEG43HU0';'TRAIN-XAB-HD';'TRAIN';'XAB';'HD';'xab';'0';'32';\N;'1';'627';\N;'3';'2';'1';'ww';\N;\N;'img/HD_6_1_.jpg';'img/HD_6_1_.jpg';'img/HD_5_3_.jpg';\N;'77';\N;'2014-06-06 18:38:52'
'ADMTRXEG43HU0';'TRAIN-XAB-HD';'TRAIN';'XAB';'HD';'xab';'0';'33';\N;'0';'717';\N;'1';'0';'1';'pp';\N;\N;'img/HD_6_6_.jpg';'img/HD_6_6_.jpg';'img/HD_5_6_.jpg';\N;'90';\N;'2014-06-06 18:38:52'
'ADMTRXEG43HU0';'TRAIN-XAB-HD';'TRAIN';'XAB';'HD';'xab';'0';'34';\N;'0';'621';\N;'2';'1';'1';'pp';\N;\N;'img/HD_5_4_.jpg';'img/HD_5_4_.jpg';'img/HD_6_5_.jpg';\N;'90';\N;'2014-06-06 18:38:52'
'ADMTRXEG43HU0';'TRAIN-XAB-HD';'TRAIN';'XAB';'HD';'xab';'0';'35';\N;'1';'668';\N;'3';'1';'2';'pp';\N;\N;'img/HD_4_6_.jpg';'img/HD_4_6_.jpg';'img/HD_2_5_.jpg';\N;'77';\N;'2014-06-06 18:38:52'
'ADMTRXEG43HU0';'TRAIN-XAB-HD';'TRAIN';'XAB';'HD';'xab';'1';'0';\N;'0';'825';\N;'1';'1';'0';'pw';\N;\N;'img/HD_1_4_.jpg';'img/HD_1_4_.jpg';'img/HD_1_3_.jpg';\N;'77';\N;'2014-06-06 18:38:52'
'ADMTRXEG43HU0';'TRAIN-XAB-HD';'TRAIN';'XAB';'HD';'xab';'1';'1';\N;'0';'639';\N;'2';'1';'1';'pp';\N;\N;'img/HD_4_5_.jpg';'img/HD_4_5_.jpg';'img/HD_3_6_.jpg';\N;'77';\N;'2014-06-06 18:38:52'
'ADMTRXEG43HU0';'TRAIN-XAB-HD';'TRAIN';'XAB';'HD';'xab';'1';'2';\N;'0';'662';\N;'1';'0';'1';'ww';\N;\N;'img/HD_3_2_.jpg';'img/HD_3_2_.jpg';'img/HD_2_2_.jpg';\N;'90';\N;'2014-06-06 18:38:52'
'ADMTRXEG43HU0';'TRAIN-XAB-HD';'TRAIN';'XAB';'HD';'xab';'1';'3';\N;'1';'706';\N;'3';'1';'2';'pp';\N;\N;'img/HD_3_4_.jpg';'img/HD_3_4_.jpg';'img/HD_5_5_.jpg';\N;'77';\N;'2014-06-06 18:38:52'
'ADMTRXEG43HU0';'TRAIN-XAB-HD';'TRAIN';'XAB';'HD';'xab';'1';'4';\N;'1';'501';\N;'1';'1';'0';'pw';\N;\N;'img/HD_6_4_.jpg';'img/HD_6_4_.jpg';'img/HD_6_3_.jpg';\N;'90';\N;'2014-06-06 18:38:52'
'ADMTRXEG43HU0';'TRAIN-XAB-HD';'TRAIN';'XAB';'HD';'xab';'1';'5';\N;'1';'760';\N;'1';'0';'1';'pp';\N;\N;'img/HD_6_5_.jpg';'img/HD_6_5_.jpg';'img/HD_5_5_.jpg';\N;'77';\N;'2014-06-06 18:38:52'
'ADMTRXEG43HU0';'TRAIN-XAB-HD';'TRAIN';'XAB';'HD';'xab';'1';'6';\N;'1';'473';\N;'3';'1';'2';'ww';\N;\N;'img/HD_2_3_.jpg';'img/HD_2_3_.jpg';'img/HD_4_2_.jpg';\N;'77';\N;'2014-06-06 18:38:52'
'ADMTRXEG43HU0';'TRAIN-XAB-HD';'TRAIN';'XAB';'HD';'xab';'1';'7';\N;'0';'640';\N;'3';'3';'0';'pw';\N;\N;'img/HD_2_3_.jpg';'img/HD_2_3_.jpg';'img/HD_2_6_.jpg';\N;'77';\N;'2014-06-06 18:38:52'
'ADMTRXEG43HU0';'TRAIN-XAB-HD';'TRAIN';'XAB';'HD';'xab';'1';'8';\N;'1';'608';\N;'3';'3';'0';'pw';\N;\N;'img/HD_6_5_.jpg';'img/HD_6_5_.jpg';'img/HD_6_2_.jpg';\N;'90';\N;'2014-06-06 18:38:52'
'ADMTRXEG43HU0';'TRAIN-XAB-HD';'TRAIN';'XAB';'HD';'xab';'1';'9';\N;'1';'671';\N;'2';'1';'1';'pw';\N;\N;'img/HD_2_4_.jpg';'img/HD_2_4_.jpg';'img/HD_3_3_.jpg';\N;'77';\N;'2014-06-06 18:38:52'
'ADMTRXEG43HU0';'TRAIN-XAB-HD';'TRAIN';'XAB';'HD';'xab';'1';'10';\N;'1';'720';\N;'2';'1';'1';'pp';\N;\N;'img/HD_5_4_.jpg';'img/HD_5_4_.jpg';'img/HD_4_5_.jpg';\N;'90';\N;'2014-06-06 18:38:52'
'ADMTRXEG43HU0';'TRAIN-XAB-HD';'TRAIN';'XAB';'HD';'xab';'1';'11';\N;'1';'814';\N;'1';'0';'1';'ww';\N;\N;'img/HD_3_1_.jpg';'img/HD_3_1_.jpg';'img/HD_2_1_.jpg';\N;'77';\N;'2014-06-06 18:38:52'
'ADMTRXEG43HU0';'TRAIN-XAB-HD';'TRAIN';'XAB';'HD';'xab';'1';'12';\N;'1';'503';\N;'2';'1';'1';'pp';\N;\N;'img/HD_2_6_.jpg';'img/HD_2_6_.jpg';'img/HD_1_5_.jpg';\N;'90';\N;'2014-06-06 18:38:52'
'ADMTRXEG43HU0';'TRAIN-XAB-HD';'TRAIN';'XAB';'HD';'xab';'1';'13';\N;'1';'639';\N;'3';'2';'1';'pp';\N;\N;'img/HD_4_6_.jpg';'img/HD_4_6_.jpg';'img/HD_5_4_.jpg';\N;'77';\N;'2014-06-06 18:38:52'
'ADMTRXEG43HU0';'TRAIN-XAB-HD';'TRAIN';'XAB';'HD';'xab';'1';'14';\N;'1';'715';\N;'1';'1';'0';'pw';\N;\N;'img/HD_4_3_.jpg';'img/HD_4_3_.jpg';'img/HD_4_4_.jpg';\N;'77';\N;'2014-06-06 18:38:52'
'ADMTRXEG43HU0';'TRAIN-XAB-HD';'TRAIN';'XAB';'HD';'xab';'1';'15';\N;'1';'736';\N;'1';'0';'1';'ww';\N;\N;'img/HD_2_2_.jpg';'img/HD_2_2_.jpg';'img/HD_1_2_.jpg';\N;'77';\N;'2014-06-06 18:38:52'
'ADMTRXEG43HU0';'TRAIN-XAB-HD';'TRAIN';'XAB';'HD';'xab';'1';'16';\N;'1';'775';\N;'1';'0';'1';'pp';\N;\N;'img/HD_2_5_.jpg';'img/HD_2_5_.jpg';'img/HD_1_5_.jpg';\N;'90';\N;'2014-06-06 18:38:52'
'ADMTRXEG43HU0';'TRAIN-XAB-HD';'TRAIN';'XAB';'HD';'xab';'1';'17';\N;'0';'599';\N;'2';'2';'0';'pw';\N;\N;'img/HD_3_5_.jpg';'img/HD_3_5_.jpg';'img/HD_3_3_.jpg';\N;'90';\N;'2014-06-06 18:38:52'
'ADMTRXEG43HU0';'TRAIN-XAB-HD';'TRAIN';'XAB';'HD';'xab';'1';'18';\N;'0';'622';\N;'1';'1';'0';'pw';\N;\N;'img/HD_1_4_.jpg';'img/HD_1_4_.jpg';'img/HD_1_3_.jpg';\N;'77';\N;'2014-06-06 18:38:52'
'ADMTRXEG43HU0';'TRAIN-XAB-HD';'TRAIN';'XAB';'HD';'xab';'1';'19';\N;'1';'711';\N;'3';'2';'1';'ww';\N;\N;'img/HD_2_3_.jpg';'img/HD_2_3_.jpg';'img/HD_1_1_.jpg';\N;'77';\N;'2014-06-06 18:38:52'
'ADMTRXEG43HU0';'TRAIN-XAB-HD';'TRAIN';'XAB';'HD';'xab';'1';'20';\N;'0';'698';\N;'1';'0';'1';'ww';\N;\N;'img/HD_3_2_.jpg';'img/HD_3_2_.jpg';'img/HD_4_2_.jpg';\N;'77';\N;'2014-06-06 18:38:52'
'ADMTRXEG43HU0';'TRAIN-XAB-HD';'TRAIN';'XAB';'HD';'xab';'1';'21';\N;'0';'533';\N;'2';'1';'1';'pp';\N;\N;'img/HD_4_5_.jpg';'img/HD_4_5_.jpg';'img/HD_3_6_.jpg';\N;'77';\N;'2014-06-06 18:38:52'
'ADMTRXEG43HU0';'TRAIN-XAB-HD';'TRAIN';'XAB';'HD';'xab';'1';'22';\N;'0';'664';\N;'3';'2';'1';'pp';\N;\N;'img/HD_4_4_.jpg';'img/HD_4_4_.jpg';'img/HD_3_6_.jpg';\N;'77';\N;'2014-06-06 18:38:52'
'ADMTRXEG43HU0';'TRAIN-XAB-HD';'TRAIN';'XAB';'HD';'xab';'1';'23';\N;'0';'513';\N;'2';'2';'0';'pw';\N;\N;'img/HD_3_3_.jpg';'img/HD_3_3_.jpg';'img/HD_3_5_.jpg';\N;'77';\N;'2014-06-06 18:38:52'
'ADMTRXEG43HU0';'TRAIN-XAB-HD';'TRAIN';'XAB';'HD';'xab';'1';'24';\N;'1';'628';\N;'3';'3';'0';'pw';\N;\N;'img/HD_3_5_.jpg';'img/HD_3_5_.jpg';'img/HD_3_2_.jpg';\N;'77';\N;'2014-06-06 18:38:52'
'ADMTRXEG43HU0';'TRAIN-XAB-HD';'TRAIN';'XAB';'HD';'xab';'1';'25';\N;'1';'730';\N;'3';'1';'2';'ww';\N;\N;'img/HD_4_1_.jpg';'img/HD_4_1_.jpg';'img/HD_2_2_.jpg';\N;'77';\N;'2014-06-06 18:38:52'
'ADMTRXEG43HU0';'TRAIN-XAB-HD';'TRAIN';'XAB';'HD';'xab';'1';'26';\N;'1';'582';\N;'2';'1';'1';'ww';\N;\N;'img/HD_1_2_.jpg';'img/HD_1_2_.jpg';'img/HD_2_1_.jpg';\N;'90';\N;'2014-06-06 18:38:52'
'ADMTRXEG43HU0';'TRAIN-XAB-HD';'TRAIN';'XAB';'HD';'xab';'1';'27';\N;'0';'748';\N;'3';'1';'2';'pp';\N;\N;'img/HD_3_4_.jpg';'img/HD_3_4_.jpg';'img/HD_5_5_.jpg';\N;'77';\N;'2014-06-06 18:38:52'
'ADMTRXEG43HU0';'TRAIN-XAB-HD';'TRAIN';'XAB';'HD';'xab';'1';'28';\N;'0';'703';\N;'1';'1';'0';'pp';\N;\N;'img/HD_3_5_.jpg';'img/HD_3_5_.jpg';'img/HD_3_4_.jpg';\N;'90';\N;'2014-06-06 18:38:52'
'ADMTRXEG43HU0';'TRAIN-XAB-HD';'TRAIN';'XAB';'HD';'xab';'1';'29';\N;'1';'240';\N;'2';'0';'2';'ww';\N;\N;'img/HD_3_1_.jpg';'img/HD_3_1_.jpg';'img/HD_5_1_.jpg';\N;'77';\N;'2014-06-06 18:38:52'
'ADMTRXEG43HU0';'TRAIN-XAB-HD';'TRAIN';'XAB';'HD';'xab';'1';'30';\N;'0';'768';\N;'2';'1';'1';'ww';\N;\N;'img/HD_3_3_.jpg';'img/HD_3_3_.jpg';'img/HD_4_2_.jpg';\N;'90';\N;'2014-06-06 18:38:52'
'ADMTRXEG43HU0';'TRAIN-XAB-HD';'TRAIN';'XAB';'HD';'xab';'1';'31';\N;'1';'682';\N;'2';'1';'1';'ww';\N;\N;'img/HD_4_2_.jpg';'img/HD_4_2_.jpg';'img/HD_3_3_.jpg';\N;'77';\N;'2014-06-06 18:38:52'
'ADMTRXEG43HU0';'TRAIN-XAB-HD';'TRAIN';'XAB';'HD';'xab';'1';'32';\N;'1';'760';\N;'3';'0';'3';'ww';\N;\N;'img/HD_3_1_.jpg';'img/HD_3_1_.jpg';'img/HD_6_1_.jpg';\N;'90';\N;'2014-06-06 18:38:52'
'ADMTRXEG43HU0';'TRAIN-XAB-HD';'TRAIN';'XAB';'HD';'xab';'1';'33';\N;'0';'515';\N;'1';'0';'1';'pp';\N;\N;'img/HD_2_6_.jpg';'img/HD_2_6_.jpg';'img/HD_1_6_.jpg';\N;'77';\N;'2014-06-06 18:38:52'
'ADMTRXEG43HU0';'TRAIN-XAB-HD';'TRAIN';'XAB';'HD';'xab';'1';'34';\N;'1';'732';\N;'2';'1';'1';'pw';\N;\N;'img/HD_2_4_.jpg';'img/HD_2_4_.jpg';'img/HD_3_3_.jpg';\N;'77';\N;'2014-06-06 18:38:52'
'ADMTRXEG43HU0';'TRAIN-XAB-HD';'TRAIN';'XAB';'HD';'xab';'1';'35';\N;'1';'965';\N;'3';'2';'1';'pw';\N;\N;'img/HD_6_3_.jpg';'img/HD_6_3_.jpg';'img/HD_5_5_.jpg';\N;'77';\N;'2014-06-06 18:38:52'
'ADMTRXEG43HU0';'TRAIN-XAB-HD';'TRAIN';'XAB';'HD';'xab';'2';'0';\N;'0';'714';\N;'1';'1';'0';'pw';\N;\N;'img/HD_1_4_.jpg';'img/HD_1_4_.jpg';'img/HD_1_3_.jpg';\N;'77';\N;'2014-06-06 18:38:52'
'ADMTRXEG43HU0';'TRAIN-XAB-HD';'TRAIN';'XAB';'HD';'xab';'2';'1';\N;'1';'553';\N;'3';'2';'1';'pp';\N;\N;'img/HD_4_6_.jpg';'img/HD_4_6_.jpg';'img/HD_5_4_.jpg';\N;'77';\N;'2014-06-06 18:38:52'
'ADMTRXEG43HU0';'TRAIN-XAB-HD';'TRAIN';'XAB';'HD';'xab';'2';'2';\N;'1';'490';\N;'3';'1';'2';'ww';\N;\N;'img/HD_1_3_.jpg';'img/HD_1_3_.jpg';'img/HD_3_2_.jpg';\N;'90';\N;'2014-06-06 18:38:52'
'ADMTRXEG43HU0';'TRAIN-XAB-HD';'TRAIN';'XAB';'HD';'xab';'2';'3';\N;'0';'606';\N;'3';'1';'2';'ww';\N;\N;'img/HD_3_2_.jpg';'img/HD_3_2_.jpg';'img/HD_5_1_.jpg';\N;'77';\N;'2014-06-06 18:38:52'
'ADMTRXEG43HU0';'TRAIN-XAB-HD';'TRAIN';'XAB';'HD';'xab';'2';'4';\N;'1';'543';\N;'2';'1';'1';'pp';\N;\N;'img/HD_4_5_.jpg';'img/HD_4_5_.jpg';'img/HD_3_6_.jpg';\N;'90';\N;'2014-06-06 18:38:52'
'ADMTRXEG43HU0';'TRAIN-XAB-HD';'TRAIN';'XAB';'HD';'xab';'2';'5';\N;'1';'563';\N;'3';'2';'1';'pw';\N;\N;'img/HD_5_2_.jpg';'img/HD_5_2_.jpg';'img/HD_4_4_.jpg';\N;'77';\N;'2014-06-06 18:38:52'
'ADMTRXEG43HU0';'TRAIN-XAB-HD';'TRAIN';'XAB';'HD';'xab';'2';'6';\N;'1';'515';\N;'2';'1';'1';'ww';\N;\N;'img/HD_5_1_.jpg';'img/HD_5_1_.jpg';'img/HD_4_2_.jpg';\N;'90';\N;'2014-06-06 18:38:52'
'ADMTRXEG43HU0';'TRAIN-XAB-HD';'TRAIN';'XAB';'HD';'xab';'2';'7';\N;'1';'585';\N;'3';'2';'1';'ww';\N;\N;'img/HD_3_1_.jpg';'img/HD_3_1_.jpg';'img/HD_4_3_.jpg';\N;'77';\N;'2014-06-06 18:38:52'
'ADMTRXEG43HU0';'TRAIN-XAB-HD';'TRAIN';'XAB';'HD';'xab';'2';'8';\N;'0';'693';\N;'1';'1';'0';'pw';\N;\N;'img/HD_5_4_.jpg';'img/HD_5_4_.jpg';'img/HD_5_3_.jpg';\N;'90';\N;'2014-06-06 18:38:52'
'ADMTRXEG43HU0';'TRAIN-XAB-HD';'TRAIN';'XAB';'HD';'xab';'2';'9';\N;'1';'504';\N;'1';'1';'0';'pw';\N;\N;'img/HD_5_3_.jpg';'img/HD_5_3_.jpg';'img/HD_5_4_.jpg';\N;'77';\N;'2014-06-06 18:38:52'
'ADMTRXEG43HU0';'TRAIN-XAB-HD';'TRAIN';'XAB';'HD';'xab';'2';'10';\N;'1';'451';\N;'2';'0';'2';'pp';\N;\N;'img/HD_3_4_.jpg';'img/HD_3_4_.jpg';'img/HD_1_4_.jpg';\N;'77';\N;'2014-06-06 18:38:52'
'ADMTRXEG43HU0';'TRAIN-XAB-HD';'TRAIN';'XAB';'HD';'xab';'2';'11';\N;'1';'836';\N;'1';'1';'0';'pw';\N;\N;'img/HD_6_3_.jpg';'img/HD_6_3_.jpg';'img/HD_6_4_.jpg';\N;'77';\N;'2014-06-06 18:38:52'
'ADMTRXEG43HU0';'TRAIN-XAB-HD';'TRAIN';'XAB';'HD';'xab';'2';'12';\N;'1';'629';\N;'1';'0';'1';'pp';\N;\N;'img/HD_3_5_.jpg';'img/HD_3_5_.jpg';'img/HD_2_5_.jpg';\N;'90';\N;'2014-06-06 18:38:52'
'ADMTRXEG43HU0';'TRAIN-XAB-HD';'TRAIN';'XAB';'HD';'xab';'2';'13';\N;'1';'811';\N;'3';'2';'1';'pp';\N;\N;'img/HD_4_4_.jpg';'img/HD_4_4_.jpg';'img/HD_5_6_.jpg';\N;'90';\N;'2014-06-06 18:38:52'
'ADMTRXEG43HU0';'TRAIN-XAB-HD';'TRAIN';'XAB';'HD';'xab';'2';'14';\N;'1';'499';\N;'3';'1';'2';'pp';\N;\N;'img/HD_3_5_.jpg';'img/HD_3_5_.jpg';'img/HD_5_6_.jpg';\N;'77';\N;'2014-06-06 18:38:52'
'ADMTRXEG43HU0';'TRAIN-XAB-HD';'TRAIN';'XAB';'HD';'xab';'2';'15';\N;'1';'624';\N;'2';'2';'0';'ww';\N;\N;'img/HD_1_1_.jpg';'img/HD_1_1_.jpg';'img/HD_1_3_.jpg';\N;'90';\N;'2014-06-06 18:38:52'
'ADMTRXEG43HU0';'TRAIN-XAB-HD';'TRAIN';'XAB';'HD';'xab';'2';'16';\N;'1';'492';\N;'2';'1';'1';'pw';\N;\N;'img/HD_6_3_.jpg';'img/HD_6_3_.jpg';'img/HD_5_4_.jpg';\N;'90';\N;'2014-06-06 18:38:52'
'ADMTRXEG43HU0';'TRAIN-XAB-HD';'TRAIN';'XAB';'HD';'xab';'2';'17';\N;'0';'539';\N;'3';'1';'2';'ww';\N;\N;'img/HD_4_3_.jpg';'img/HD_4_3_.jpg';'img/HD_2_2_.jpg';\N;'77';\N;'2014-06-06 18:38:52'
'ADMTRXEG43HU0';'TRAIN-XAB-HD';'TRAIN';'XAB';'HD';'xab';'2';'18';\N;'1';'664';\N;'2';'2';'0';'pw';\N;\N;'img/HD_4_2_.jpg';'img/HD_4_2_.jpg';'img/HD_4_4_.jpg';\N;'90';\N;'2014-06-06 18:38:52'
'ADMTRXEG43HU0';'TRAIN-XAB-HD';'TRAIN';'XAB';'HD';'xab';'2';'19';\N;'1';'771';\N;'1';'1';'0';'pp';\N;\N;'img/HD_4_4_.jpg';'img/HD_4_4_.jpg';'img/HD_4_5_.jpg';\N;'90';\N;'2014-06-06 18:38:52'
'ADMTRXEG43HU0';'TRAIN-XAB-HD';'TRAIN';'XAB';'HD';'xab';'2';'20';\N;'0';'766';\N;'1';'1';'0';'ww';\N;\N;'img/HD_1_3_.jpg';'img/HD_1_3_.jpg';'img/HD_1_2_.jpg';\N;'77';\N;'2014-06-06 18:38:52'
'ADMTRXEG43HU0';'TRAIN-XAB-HD';'TRAIN';'XAB';'HD';'xab';'2';'21';\N;'1';'642';\N;'3';'2';'1';'pp';\N;\N;'img/HD_1_6_.jpg';'img/HD_1_6_.jpg';'img/HD_2_4_.jpg';\N;'77';\N;'2014-06-06 18:38:52'
'ADMTRXEG43HU0';'TRAIN-XAB-HD';'TRAIN';'XAB';'HD';'xab';'2';'22';\N;'1';'540';\N;'3';'3';'0';'pw';\N;\N;'img/HD_3_5_.jpg';'img/HD_3_5_.jpg';'img/HD_3_2_.jpg';\N;'90';\N;'2014-06-06 18:38:52'
'ADMTRXEG43HU0';'TRAIN-XAB-HD';'TRAIN';'XAB';'HD';'xab';'2';'23';\N;'1';'544';\N;'3';'3';'0';'pw';\N;\N;'img/HD_4_4_.jpg';'img/HD_4_4_.jpg';'img/HD_4_1_.jpg';\N;'77';\N;'2014-06-06 18:38:52'
'ADMTRXEG43HU0';'TRAIN-XAB-HD';'TRAIN';'XAB';'HD';'xab';'2';'24';\N;'1';'648';\N;'1';'0';'1';'ww';\N;\N;'img/HD_5_2_.jpg';'img/HD_5_2_.jpg';'img/HD_4_2_.jpg';\N;'90';\N;'2014-06-06 18:38:52'
'ADMTRXEG43HU0';'TRAIN-XAB-HD';'TRAIN';'XAB';'HD';'xab';'2';'25';\N;'1';'796';\N;'2';'0';'2';'ww';\N;\N;'img/HD_5_1_.jpg';'img/HD_5_1_.jpg';'img/HD_3_1_.jpg';\N;'90';\N;'2014-06-06 18:38:52'
'ADMTRXEG43HU0';'TRAIN-XAB-HD';'TRAIN';'XAB';'HD';'xab';'2';'26';\N;'1';'543';\N;'1';'0';'1';'pp';\N;\N;'img/HD_2_6_.jpg';'img/HD_2_6_.jpg';'img/HD_3_6_.jpg';\N;'90';\N;'2014-06-06 18:38:52'
'ADMTRXEG43HU0';'TRAIN-XAB-HD';'TRAIN';'XAB';'HD';'xab';'2';'27';\N;'0';'467';\N;'2';'0';'2';'pp';\N;\N;'img/HD_2_4_.jpg';'img/HD_2_4_.jpg';'img/HD_4_4_.jpg';\N;'90';\N;'2014-06-06 18:38:52'
'ADMTRXEG43HU0';'TRAIN-XAB-HD';'TRAIN';'XAB';'HD';'xab';'2';'28';\N;'1';'548';\N;'2';'1';'1';'pw';\N;\N;'img/HD_3_4_.jpg';'img/HD_3_4_.jpg';'img/HD_2_3_.jpg';\N;'77';\N;'2014-06-06 18:38:52'
'ADMTRXEG43HU0';'TRAIN-XAB-HD';'TRAIN';'XAB';'HD';'xab';'2';'29';\N;'1';'507';\N;'3';'3';'0';'pw';\N;\N;'img/HD_3_6_.jpg';'img/HD_3_6_.jpg';'img/HD_3_3_.jpg';\N;'77';\N;'2014-06-06 18:38:52'
'ADMTRXEG43HU0';'TRAIN-XAB-HD';'TRAIN';'XAB';'HD';'xab';'2';'30';\N;'1';'625';\N;'1';'0';'1';'ww';\N;\N;'img/HD_4_3_.jpg';'img/HD_4_3_.jpg';'img/HD_5_3_.jpg';\N;'77';\N;'2014-06-06 18:38:52'
'ADMTRXEG43HU0';'TRAIN-XAB-HD';'TRAIN';'XAB';'HD';'xab';'2';'31';\N;'1';'451';\N;'1';'1';'0';'ww';\N;\N;'img/HD_5_2_.jpg';'img/HD_5_2_.jpg';'img/HD_5_1_.jpg';\N;'90';\N;'2014-06-06 18:38:52'
'ADMTRXEG43HU0';'TRAIN-XAB-HD';'TRAIN';'XAB';'HD';'xab';'2';'32';\N;'0';'546';\N;'2';'1';'1';'pw';\N;\N;'img/HD_5_4_.jpg';'img/HD_5_4_.jpg';'img/HD_6_3_.jpg';\N;'77';\N;'2014-06-06 18:38:52'
'ADMTRXEG43HU0';'TRAIN-XAB-HD';'TRAIN';'XAB';'HD';'xab';'2';'33';\N;'0';'670';\N;'2';'2';'0';'pp';\N;\N;'img/HD_1_4_.jpg';'img/HD_1_4_.jpg';'img/HD_1_6_.jpg';\N;'90';\N;'2014-06-06 18:38:52'
'ADMTRXEG43HU0';'TRAIN-XAB-HD';'TRAIN';'XAB';'HD';'xab';'2';'34';\N;'1';'612';\N;'2';'1';'1';'ww';\N;\N;'img/HD_5_2_.jpg';'img/HD_5_2_.jpg';'img/HD_4_3_.jpg';\N;'77';\N;'2014-06-06 18:38:52'
'ADMTRXEG43HU0';'TRAIN-XAB-HD';'TRAIN';'XAB';'HD';'xab';'2';'35';\N;'0';'661';\N;'1';'0';'1';'pp';\N;\N;'img/HD_4_6_.jpg';'img/HD_4_6_.jpg';'img/HD_3_6_.jpg';\N;'77';\N;'2014-06-06 18:38:52'
'ADMTRXEG43HU0';'TRAIN-XAB-HD';'TRAIN';'XAB';'HD';'xab';'3';'0';\N;'1';'696';\N;'3';'0';'3';'ww';\N;\N;'img/HD_6_1_.jpg';'img/HD_6_1_.jpg';'img/HD_3_1_.jpg';\N;'90';\N;'2014-06-06 18:38:52'
'ADMTRXEG43HU0';'TRAIN-XAB-HD';'TRAIN';'XAB';'HD';'xab';'3';'1';\N;'1';'509';\N;'1';'0';'1';'ww';\N;\N;'img/HD_1_3_.jpg';'img/HD_1_3_.jpg';'img/HD_2_3_.jpg';\N;'90';\N;'2014-06-06 18:38:52'
'ADMTRXEG43HU0';'TRAIN-XAB-HD';'TRAIN';'XAB';'HD';'xab';'3';'2';\N;'1';'594';\N;'2';'1';'1';'pp';\N;\N;'img/HD_1_4_.jpg';'img/HD_1_4_.jpg';'img/HD_2_5_.jpg';\N;'90';\N;'2014-06-06 18:38:52'
'ADMTRXEG43HU0';'TRAIN-XAB-HD';'TRAIN';'XAB';'HD';'xab';'3';'3';\N;'1';'684';\N;'1';'1';'0';'pp';\N;\N;'img/HD_5_5_.jpg';'img/HD_5_5_.jpg';'img/HD_5_6_.jpg';\N;'77';\N;'2014-06-06 18:38:52'
'ADMTRXEG43HU0';'TRAIN-XAB-HD';'TRAIN';'XAB';'HD';'xab';'3';'4';\N;'0';'574';\N;'1';'0';'1';'ww';\N;\N;'img/HD_2_2_.jpg';'img/HD_2_2_.jpg';'img/HD_1_2_.jpg';\N;'90';\N;'2014-06-06 18:38:52'
'ADMTRXEG43HU0';'TRAIN-XAB-HD';'TRAIN';'XAB';'HD';'xab';'3';'5';\N;'1';'611';\N;'3';'0';'3';'ww';\N;\N;'img/HD_5_1_.jpg';'img/HD_5_1_.jpg';'img/HD_2_1_.jpg';\N;'90';\N;'2014-06-06 18:38:52'
'ADMTRXEG43HU0';'TRAIN-XAB-HD';'TRAIN';'XAB';'HD';'xab';'3';'6';\N;'1';'702';\N;'2';'1';'1';'pp';\N;\N;'img/HD_2_5_.jpg';'img/HD_2_5_.jpg';'img/HD_1_6_.jpg';\N;'90';\N;'2014-06-06 18:38:52'
'ADMTRXEG43HU0';'TRAIN-XAB-HD';'TRAIN';'XAB';'HD';'xab';'3';'7';\N;'1';'807';\N;'2';'1';'1';'pw';\N;\N;'img/HD_3_4_.jpg';'img/HD_3_4_.jpg';'img/HD_4_3_.jpg';\N;'90';\N;'2014-06-06 18:38:52'
'ADMTRXEG43HU0';'TRAIN-XAB-HD';'TRAIN';'XAB';'HD';'xab';'3';'8';\N;'0';'495';\N;'2';'2';'0';'pw';\N;\N;'img/HD_5_3_.jpg';'img/HD_5_3_.jpg';'img/HD_5_5_.jpg';\N;'77';\N;'2014-06-06 18:38:52'
'ADMTRXEG43HU0';'TRAIN-XAB-HD';'TRAIN';'XAB';'HD';'xab';'3';'9';\N;'0';'514';\N;'3';'2';'1';'pw';\N;\N;'img/HD_3_4_.jpg';'img/HD_3_4_.jpg';'img/HD_4_2_.jpg';\N;'90';\N;'2014-06-06 18:38:52'
'ADMTRXEG43HU0';'TRAIN-XAB-HD';'TRAIN';'XAB';'HD';'xab';'3';'10';\N;'1';'683';\N;'2';'1';'1';'pw';\N;\N;'img/HD_3_4_.jpg';'img/HD_3_4_.jpg';'img/HD_4_3_.jpg';\N;'77';\N;'2014-06-06 18:38:52'
'ADMTRXEG43HU0';'TRAIN-XAB-HD';'TRAIN';'XAB';'HD';'xab';'3';'11';\N;'1';'666';\N;'3';'1';'2';'pp';\N;\N;'img/HD_5_6_.jpg';'img/HD_5_6_.jpg';'img/HD_3_5_.jpg';\N;'77';\N;'2014-06-06 18:38:52'
'ADMTRXEG43HU0';'TRAIN-XAB-HD';'TRAIN';'XAB';'HD';'xab';'3';'12';\N;'0';'565';\N;'3';'1';'2';'pp';\N;\N;'img/HD_4_4_.jpg';'img/HD_4_4_.jpg';'img/HD_6_5_.jpg';\N;'90';\N;'2014-06-06 18:38:52'
'ADMTRXEG43HU0';'TRAIN-XAB-HD';'TRAIN';'XAB';'HD';'xab';'3';'13';\N;'1';'475';\N;'3';'0';'3';'ww';\N;\N;'img/HD_2_2_.jpg';'img/HD_2_2_.jpg';'img/HD_5_2_.jpg';\N;'90';\N;'2014-06-06 18:38:52'
'ADMTRXEG43HU0';'TRAIN-XAB-HD';'TRAIN';'XAB';'HD';'xab';'3';'14';\N;'1';'574';\N;'3';'2';'1';'pw';\N;\N;'img/HD_5_5_.jpg';'img/HD_5_5_.jpg';'img/HD_6_3_.jpg';\N;'77';\N;'2014-06-06 18:38:52'
'ADMTRXEG43HU0';'TRAIN-XAB-HD';'TRAIN';'XAB';'HD';'xab';'3';'15';\N;'1';'582';\N;'2';'2';'0';'pw';\N;\N;'img/HD_4_5_.jpg';'img/HD_4_5_.jpg';'img/HD_4_3_.jpg';\N;'90';\N;'2014-06-06 18:38:52'
'ADMTRXEG43HU0';'TRAIN-XAB-HD';'TRAIN';'XAB';'HD';'xab';'3';'16';\N;'0';'621';\N;'2';'1';'1';'pp';\N;\N;'img/HD_5_6_.jpg';'img/HD_5_6_.jpg';'img/HD_6_5_.jpg';\N;'90';\N;'2014-06-06 18:38:52'
'ADMTRXEG43HU0';'TRAIN-XAB-HD';'TRAIN';'XAB';'HD';'xab';'3';'17';\N;'1';'626';\N;'1';'0';'1';'pp';\N;\N;'img/HD_1_4_.jpg';'img/HD_1_4_.jpg';'img/HD_2_4_.jpg';\N;'77';\N;'2014-06-06 18:38:52'
'ADMTRXEG43HU0';'TRAIN-XAB-HD';'TRAIN';'XAB';'HD';'xab';'3';'18';\N;'1';'723';\N;'2';'1';'1';'ww';\N;\N;'img/HD_6_2_.jpg';'img/HD_6_2_.jpg';'img/HD_5_3_.jpg';\N;'77';\N;'2014-06-06 18:38:52'
'ADMTRXEG43HU0';'TRAIN-XAB-HD';'TRAIN';'XAB';'HD';'xab';'3';'19';\N;'1';'801';\N;'3';'2';'1';'pp';\N;\N;'img/HD_4_4_.jpg';'img/HD_4_4_.jpg';'img/HD_3_6_.jpg';\N;'77';\N;'2014-06-06 18:38:52'
'ADMTRXEG43HU0';'TRAIN-XAB-HD';'TRAIN';'XAB';'HD';'xab';'3';'20';\N;'1';'784';\N;'3';'2';'1';'pw';\N;\N;'img/HD_4_4_.jpg';'img/HD_4_4_.jpg';'img/HD_5_2_.jpg';\N;'90';\N;'2014-06-06 18:38:52'
'ADMTRXEG43HU0';'TRAIN-XAB-HD';'TRAIN';'XAB';'HD';'xab';'3';'21';\N;'1';'650';\N;'1';'1';'0';'ww';\N;\N;'img/HD_6_1_.jpg';'img/HD_6_1_.jpg';'img/HD_6_2_.jpg';\N;'77';\N;'2014-06-06 18:38:52'
'ADMTRXEG43HU0';'TRAIN-XAB-HD';'TRAIN';'XAB';'HD';'xab';'3';'22';\N;'0';'700';\N;'2';'1';'1';'pp';\N;\N;'img/HD_2_6_.jpg';'img/HD_2_6_.jpg';'img/HD_1_5_.jpg';\N;'90';\N;'2014-06-06 18:38:52'
'ADMTRXEG43HU0';'TRAIN-XAB-HD';'TRAIN';'XAB';'HD';'xab';'3';'23';\N;'1';'577';\N;'3';'2';'1';'pw';\N;\N;'img/HD_2_2_.jpg';'img/HD_2_2_.jpg';'img/HD_1_4_.jpg';\N;'77';\N;'2014-06-06 18:38:52'
'ADMTRXEG43HU0';'TRAIN-XAB-HD';'TRAIN';'XAB';'HD';'xab';'3';'24';\N;'1';'550';\N;'2';'0';'2';'ww';\N;\N;'img/HD_4_2_.jpg';'img/HD_4_2_.jpg';'img/HD_2_2_.jpg';\N;'90';\N;'2014-06-06 18:38:52'
'ADMTRXEG43HU0';'TRAIN-XAB-HD';'TRAIN';'XAB';'HD';'xab';'3';'25';\N;'0';'834';\N;'1';'1';'0';'pw';\N;\N;'img/HD_1_4_.jpg';'img/HD_1_4_.jpg';'img/HD_1_3_.jpg';\N;'77';\N;'2014-06-06 18:38:52'
'ADMTRXEG43HU0';'TRAIN-XAB-HD';'TRAIN';'XAB';'HD';'xab';'3';'26';\N;'0';'546';\N;'1';'1';'0';'ww';\N;\N;'img/HD_3_2_.jpg';'img/HD_3_2_.jpg';'img/HD_3_1_.jpg';\N;'90';\N;'2014-06-06 18:38:52'
'ADMTRXEG43HU0';'TRAIN-XAB-HD';'TRAIN';'XAB';'HD';'xab';'3';'27';\N;'0';'577';\N;'1';'1';'0';'pp';\N;\N;'img/HD_3_6_.jpg';'img/HD_3_6_.jpg';'img/HD_3_5_.jpg';\N;'77';\N;'2014-06-06 18:38:52'
'ADMTRXEG43HU0';'TRAIN-XAB-HD';'TRAIN';'XAB';'HD';'xab';'3';'28';\N;'1';'536';\N;'1';'1';'0';'pw';\N;\N;'img/HD_4_3_.jpg';'img/HD_4_3_.jpg';'img/HD_4_4_.jpg';\N;'77';\N;'2014-06-06 18:38:52'
'ADMTRXEG43HU0';'TRAIN-XAB-HD';'TRAIN';'XAB';'HD';'xab';'3';'29';\N;'0';'600';\N;'2';'0';'2';'ww';\N;\N;'img/HD_2_2_.jpg';'img/HD_2_2_.jpg';'img/HD_4_2_.jpg';\N;'90';\N;'2014-06-06 18:38:52'
'ADMTRXEG43HU0';'TRAIN-XAB-HD';'TRAIN';'XAB';'HD';'xab';'3';'30';\N;'1';'497';\N;'3';'0';'3';'pp';\N;\N;'img/HD_5_5_.jpg';'img/HD_5_5_.jpg';'img/HD_2_5_.jpg';\N;'77';\N;'2014-06-06 18:38:52'
'ADMTRXEG43HU0';'TRAIN-XAB-HD';'TRAIN';'XAB';'HD';'xab';'3';'31';\N;'0';'726';\N;'1';'1';'0';'pw';\N;\N;'img/HD_6_3_.jpg';'img/HD_6_3_.jpg';'img/HD_6_4_.jpg';\N;'77';\N;'2014-06-06 18:38:52'
'ADMTRXEG43HU0';'TRAIN-XAB-HD';'TRAIN';'XAB';'HD';'xab';'3';'32';\N;'0';'647';\N;'3';'2';'1';'ww';\N;\N;'img/HD_5_3_.jpg';'img/HD_5_3_.jpg';'img/HD_6_1_.jpg';\N;'90';\N;'2014-06-06 18:38:52'
'ADMTRXEG43HU0';'TRAIN-XAB-HD';'TRAIN';'XAB';'HD';'xab';'3';'33';\N;'1';'658';\N;'2';'1';'1';'ww';\N;\N;'img/HD_1_3_.jpg';'img/HD_1_3_.jpg';'img/HD_2_2_.jpg';\N;'90';\N;'2014-06-06 18:38:52'
'ADMTRXEG43HU0';'TRAIN-XAB-HD';'TRAIN';'XAB';'HD';'xab';'3';'34';\N;'1';'646';\N;'1';'1';'0';'pw';\N;\N;'img/HD_3_4_.jpg';'img/HD_3_4_.jpg';'img/HD_3_3_.jpg';\N;'90';\N;'2014-06-06 18:38:52'
'ADMTRXEG43HU0';'TRAIN-XAB-HD';'TRAIN';'XAB';'HD';'xab';'3';'35';\N;'1';'462';\N;'1';'0';'1';'pp';\N;\N;'img/HD_2_5_.jpg';'img/HD_2_5_.jpg';'img/HD_3_5_.jpg';\N;'90';\N;'2014-06-06 18:38:52'
'A3QJYAJDN0D3V1';'TRAIN-XAB-HD';'TRAIN';'XAB';'HD';'text';\N;'0';\N;\N;'21916';\N;\N;\N;\N;\N;\N;\N;\N;\N;\N;\N;\N;\N;'2014-06-06 18:39:46'
'A3QJYAJDN0D3V1';'TRAIN-XAB-HD';'TRAIN';'XAB';'HD';'text';\N;'1';\N;\N;'24615';\N;\N;\N;\N;\N;\N;\N;\N;\N;\N;\N;\N;\N;'2014-06-06 18:39:46'
'A3QJYAJDN0D3V1';'TRAIN-XAB-HD';'TRAIN';'XAB';'HD';'text';\N;'2';\N;\N;'26143';\N;\N;\N;\N;\N;\N;\N;\N;\N;\N;\N;\N;\N;'2014-06-06 18:39:46'
'A3QJYAJDN0D3V1';'TRAIN-XAB-HD';'TRAIN';'XAB';'HD';'text';\N;'3';\N;\N;'16260';\N;\N;\N;\N;\N;\N;\N;\N;\N;\N;\N;\N;\N;'2014-06-06 18:39:46'
'A3QJYAJDN0D3V1';'TRAIN-XAB-HD';'TRAIN';'XAB';'HD';'adaptive_train';'0';'0';\N;'1';'3958';\N;\N;\N;\N;\N;'img/HD_5_4_.jpg';\N;\N;\N;\N;\N;'66';\N;'2014-06-06 18:39:46'
'A3QJYAJDN0D3V1';'TRAIN-XAB-HD';'TRAIN';'XAB';'HD';'adaptive_train';'0';'1';\N;'0';'2143';\N;\N;\N;\N;\N;'img/HD_2_5_.jpg';\N;\N;\N;\N;\N;'84';\N;'2014-06-06 18:39:46'
'A3QJYAJDN0D3V1';'TRAIN-XAB-HD';'TRAIN';'XAB';'HD';'adaptive_train';'0';'2';\N;'1';'2391';\N;\N;\N;\N;\N;'img/HD_3_6_.jpg';\N;\N;\N;\N;\N;'66';\N;'2014-06-06 18:39:46'
'A3QJYAJDN0D3V1';'TRAIN-XAB-HD';'TRAIN';'XAB';'HD';'adaptive_train';'0';'3';\N;'1';'1328';\N;\N;\N;\N;\N;'img/HD_4_1_.jpg';\N;\N;\N;\N;\N;'84';\N;'2014-06-06 18:39:46'
'A3QJYAJDN0D3V1';'TRAIN-XAB-HD';'TRAIN';'XAB';'HD';'adaptive_train';'0';'4';\N;'1';'3248';\N;\N;\N;\N;\N;'img/HD_2_4_.jpg';\N;\N;\N;\N;\N;'66';\N;'2014-06-06 18:39:46'
'A3QJYAJDN0D3V1';'TRAIN-XAB-HD';'TRAIN';'XAB';'HD';'adaptive_train';'0';'5';\N;'1';'1136';\N;\N;\N;\N;\N;'img/HD_6_5_.jpg';\N;\N;\N;\N;\N;'66';\N;'2014-06-06 18:39:46'
'A3QJYAJDN0D3V1';'TRAIN-XAB-HD';'TRAIN';'XAB';'HD';'adaptive_train';'0';'6';\N;'1';'1920';\N;\N;\N;\N;\N;'img/HD_2_2_.jpg';\N;\N;\N;\N;\N;'84';\N;'2014-06-06 18:39:46'
'A3QJYAJDN0D3V1';'TRAIN-XAB-HD';'TRAIN';'XAB';'HD';'adaptive_train';'0';'7';\N;'1';'1159';\N;\N;\N;\N;\N;'img/HD_2_1_.jpg';\N;\N;\N;\N;\N;'84';\N;'2014-06-06 18:39:46'
'A3QJYAJDN0D3V1';'TRAIN-XAB-HD';'TRAIN';'XAB';'HD';'adaptive_train';'0';'8';\N;'1';'1751';\N;\N;\N;\N;\N;'img/HD_4_4_.jpg';\N;\N;\N;\N;\N;'66';\N;'2014-06-06 18:39:46'
'A3QJYAJDN0D3V1';'TRAIN-XAB-HD';'TRAIN';'XAB';'HD';'adaptive_train';'0';'9';\N;'0';'3343';\N;\N;\N;\N;\N;'img/HD_5_2_.jpg';\N;\N;\N;\N;\N;'66';\N;'2014-06-06 18:39:46'
'A3QJYAJDN0D3V1';'TRAIN-XAB-HD';'TRAIN';'XAB';'HD';'adaptive_train';'0';'10';\N;'0';'1296';\N;\N;\N;\N;\N;'img/HD_4_3_.jpg';\N;\N;\N;\N;\N;'66';\N;'2014-06-06 18:39:46'
'A3QJYAJDN0D3V1';'TRAIN-XAB-HD';'TRAIN';'XAB';'HD';'adaptive_train';'0';'11';\N;'1';'1408';\N;\N;\N;\N;\N;'img/HD_1_2_.jpg';\N;\N;\N;\N;\N;'84';\N;'2014-06-06 18:39:46'
'A3QJYAJDN0D3V1';'TRAIN-XAB-HD';'TRAIN';'XAB';'HD';'adaptive_train';'0';'12';\N;'1';'1296';\N;\N;\N;\N;\N;'img/HD_3_5_.jpg';\N;\N;\N;\N;\N;'66';\N;'2014-06-06 18:39:46'
'A3QJYAJDN0D3V1';'TRAIN-XAB-HD';'TRAIN';'XAB';'HD';'adaptive_train';'0';'13';\N;'1';'952';\N;\N;\N;\N;\N;'img/HD_4_5_.jpg';\N;\N;\N;\N;\N;'66';\N;'2014-06-06 18:39:46'
'A3QJYAJDN0D3V1';'TRAIN-XAB-HD';'TRAIN';'XAB';'HD';'adaptive_train';'0';'14';\N;'1';'880';\N;\N;\N;\N;\N;'img/HD_1_1_.jpg';\N;\N;\N;\N;\N;'84';\N;'2014-06-06 18:39:46'
'A3QJYAJDN0D3V1';'TRAIN-XAB-HD';'TRAIN';'XAB';'HD';'adaptive_train';'0';'15';\N;'1';'2537';\N;\N;\N;\N;\N;'img/HD_5_1_.jpg';\N;\N;\N;\N;\N;'84';\N;'2014-06-06 18:39:46'
'A3QJYAJDN0D3V1';'TRAIN-XAB-HD';'TRAIN';'XAB';'HD';'adaptive_train';'0';'16';\N;'1';'1585';\N;\N;\N;\N;\N;'img/HD_3_3_.jpg';\N;\N;\N;\N;\N;'84';\N;'2014-06-06 18:39:46'
'A3QJYAJDN0D3V1';'TRAIN-XAB-HD';'TRAIN';'XAB';'HD';'adaptive_train';'0';'17';\N;'1';'1664';\N;\N;\N;\N;\N;'img/HD_6_1_.jpg';\N;\N;\N;\N;\N;'84';\N;'2014-06-06 18:39:46'
'A3QJYAJDN0D3V1';'TRAIN-XAB-HD';'TRAIN';'XAB';'HD';'adaptive_train';'0';'18';\N;'1';'866';\N;\N;\N;\N;\N;'img/HD_4_2_.jpg';\N;\N;\N;\N;\N;'84';\N;'2014-06-06 18:39:46'
'A3QJYAJDN0D3V1';'TRAIN-XAB-HD';'TRAIN';'XAB';'HD';'adaptive_train';'0';'19';\N;'1';'1634';\N;\N;\N;\N;\N;'img/HD_6_6_.jpg';\N;\N;\N;\N;\N;'66';\N;'2014-06-06 18:39:46'
'A3QJYAJDN0D3V1';'TRAIN-XAB-HD';'TRAIN';'XAB';'HD';'adaptive_train';'0';'20';\N;'1';'2814';\N;\N;\N;\N;\N;'img/HD_5_5_.jpg';\N;\N;\N;\N;\N;'66';\N;'2014-06-06 18:39:46'
'A3QJYAJDN0D3V1';'TRAIN-XAB-HD';'TRAIN';'XAB';'HD';'adaptive_train';'0';'21';\N;'1';'888';\N;\N;\N;\N;\N;'img/HD_1_3_.jpg';\N;\N;\N;\N;\N;'84';\N;'2014-06-06 18:39:46'
'A3QJYAJDN0D3V1';'TRAIN-XAB-HD';'TRAIN';'XAB';'HD';'adaptive_train';'0';'22';\N;'0';'1016';\N;\N;\N;\N;\N;'img/HD_5_3_.jpg';\N;\N;\N;\N;\N;'66';\N;'2014-06-06 18:39:46'
'A3QJYAJDN0D3V1';'TRAIN-XAB-HD';'TRAIN';'XAB';'HD';'adaptive_train';'0';'23';\N;'1';'967';\N;\N;\N;\N;\N;'img/HD_2_6_.jpg';\N;\N;\N;\N;\N;'66';\N;'2014-06-06 18:39:46'
'A3QJYAJDN0D3V1';'TRAIN-XAB-HD';'TRAIN';'XAB';'HD';'adaptive_train';'0';'24';\N;'1';'920';\N;\N;\N;\N;\N;'img/HD_2_3_.jpg';\N;\N;\N;\N;\N;'84';\N;'2014-06-06 18:39:46'
'A3QJYAJDN0D3V1';'TRAIN-XAB-HD';'TRAIN';'XAB';'HD';'adaptive_train';'0';'25';\N;'1';'1351';\N;\N;\N;\N;\N;'img/HD_1_5_.jpg';\N;\N;\N;\N;\N;'66';\N;'2014-06-06 18:39:46'
'A3QJYAJDN0D3V1';'TRAIN-XAB-HD';'TRAIN';'XAB';'HD';'adaptive_train';'0';'26';\N;'1';'1558';\N;\N;\N;\N;\N;'img/HD_4_6_.jpg';\N;\N;\N;\N;\N;'66';\N;'2014-06-06 18:39:46'
'A3QJYAJDN0D3V1';'TRAIN-XAB-HD';'TRAIN';'XAB';'HD';'adaptive_train';'0';'27';\N;'1';'1105';\N;\N;\N;\N;\N;'img/HD_6_2_.jpg';\N;\N;\N;\N;\N;'84';\N;'2014-06-06 18:39:46'
'A3QJYAJDN0D3V1';'TRAIN-XAB-HD';'TRAIN';'XAB';'HD';'adaptive_train';'0';'28';\N;'1';'1424';\N;\N;\N;\N;\N;'img/HD_1_6_.jpg';\N;\N;\N;\N;\N;'66';\N;'2014-06-06 18:39:46'
'A3QJYAJDN0D3V1';'TRAIN-XAB-HD';'TRAIN';'XAB';'HD';'adaptive_train';'0';'29';\N;'1';'922';\N;\N;\N;\N;\N;'img/HD_3_1_.jpg';\N;\N;\N;\N;\N;'84';\N;'2014-06-06 18:39:46'
'A3QJYAJDN0D3V1';'TRAIN-XAB-HD';'TRAIN';'XAB';'HD';'adaptive_train';'0';'30';\N;'1';'1240';\N;\N;\N;\N;\N;'img/HD_3_4_.jpg';\N;\N;\N;\N;\N;'66';\N;'2014-06-06 18:39:46'
'A3QJYAJDN0D3V1';'TRAIN-XAB-HD';'TRAIN';'XAB';'HD';'adaptive_train';'0';'31';\N;'1';'840';\N;\N;\N;\N;\N;'img/HD_6_3_.jpg';\N;\N;\N;\N;\N;'84';\N;'2014-06-06 18:39:46'
'A3QJYAJDN0D3V1';'TRAIN-XAB-HD';'TRAIN';'XAB';'HD';'adaptive_train';'0';'32';\N;'1';'656';\N;\N;\N;\N;\N;'img/HD_5_6_.jpg';\N;\N;\N;\N;\N;'66';\N;'2014-06-06 18:39:46'
'A3QJYAJDN0D3V1';'TRAIN-XAB-HD';'TRAIN';'XAB';'HD';'adaptive_train';'0';'33';\N;'1';'2592';\N;\N;\N;\N;\N;'img/HD_6_4_.jpg';\N;\N;\N;\N;\N;'66';\N;'2014-06-06 18:39:46'
'A3QJYAJDN0D3V1';'TRAIN-XAB-HD';'TRAIN';'XAB';'HD';'adaptive_train';'0';'34';\N;'1';'664';\N;\N;\N;\N;\N;'img/HD_3_2_.jpg';\N;\N;\N;\N;\N;'84';\N;'2014-06-06 18:39:46'
'A3QJYAJDN0D3V1';'TRAIN-XAB-HD';'TRAIN';'XAB';'HD';'adaptive_train';'0';'35';\N;'0';'1305';\N;\N;\N;\N;\N;'img/HD_1_4_.jpg';\N;\N;\N;\N;\N;'84';\N;'2014-06-06 18:39:46'
'A3QJYAJDN0D3V1';'TRAIN-XAB-HD';'TRAIN';'XAB';'HD';'adaptive_train';'1';'0';\N;'1';'1956';\N;\N;\N;\N;\N;'img/HD_5_2_.jpg';\N;\N;\N;\N;\N;'84';\N;'2014-06-06 18:39:46'
'A3QJYAJDN0D3V1';'TRAIN-XAB-HD';'TRAIN';'XAB';'HD';'adaptive_train';'1';'1';\N;'1';'1847';\N;\N;\N;\N;\N;'img/HD_2_1_.jpg';\N;\N;\N;\N;\N;'84';\N;'2014-06-06 18:39:46'
'A3QJYAJDN0D3V1';'TRAIN-XAB-HD';'TRAIN';'XAB';'HD';'adaptive_train';'1';'2';\N;'1';'799';\N;\N;\N;\N;\N;'img/HD_5_4_.jpg';\N;\N;\N;\N;\N;'66';\N;'2014-06-06 18:39:46'
'A3QJYAJDN0D3V1';'TRAIN-XAB-HD';'TRAIN';'XAB';'HD';'adaptive_train';'1';'3';\N;'1';'1063';\N;\N;\N;\N;\N;'img/HD_5_6_.jpg';\N;\N;\N;\N;\N;'66';\N;'2014-06-06 18:39:46'
'A3QJYAJDN0D3V1';'TRAIN-XAB-HD';'TRAIN';'XAB';'HD';'adaptive_train';'1';'4';\N;'0';'4047';\N;\N;\N;\N;\N;'img/HD_2_3_.jpg';\N;\N;\N;\N;\N;'66';\N;'2014-06-06 18:39:46'
'A3QJYAJDN0D3V1';'TRAIN-XAB-HD';'TRAIN';'XAB';'HD';'adaptive_train';'1';'5';\N;'1';'1888';\N;\N;\N;\N;\N;'img/HD_6_6_.jpg';\N;\N;\N;\N;\N;'66';\N;'2014-06-06 18:39:46'
'A3QJYAJDN0D3V1';'TRAIN-XAB-HD';'TRAIN';'XAB';'HD';'adaptive_train';'1';'6';\N;'1';'1272';\N;\N;\N;\N;\N;'img/HD_3_3_.jpg';\N;\N;\N;\N;\N;'84';\N;'2014-06-06 18:39:46'
'A3QJYAJDN0D3V1';'TRAIN-XAB-HD';'TRAIN';'XAB';'HD';'adaptive_train';'1';'7';\N;'1';'1416';\N;\N;\N;\N;\N;'img/HD_2_6_.jpg';\N;\N;\N;\N;\N;'66';\N;'2014-06-06 18:39:46'
'A3QJYAJDN0D3V1';'TRAIN-XAB-HD';'TRAIN';'XAB';'HD';'adaptive_train';'1';'8';\N;'1';'1728';\N;\N;\N;\N;\N;'img/HD_2_4_.jpg';\N;\N;\N;\N;\N;'66';\N;'2014-06-06 18:39:46'
'A3QJYAJDN0D3V1';'TRAIN-XAB-HD';'TRAIN';'XAB';'HD';'adaptive_train';'1';'9';\N;'1';'839';\N;\N;\N;\N;\N;'img/HD_4_6_.jpg';\N;\N;\N;\N;\N;'66';\N;'2014-06-06 18:39:46'
'A3QJYAJDN0D3V1';'TRAIN-XAB-HD';'TRAIN';'XAB';'HD';'adaptive_train';'1';'10';\N;'1';'778';\N;\N;\N;\N;\N;'img/HD_1_6_.jpg';\N;\N;\N;\N;\N;'66';\N;'2014-06-06 18:39:46'
'A3QJYAJDN0D3V1';'TRAIN-XAB-HD';'TRAIN';'XAB';'HD';'adaptive_train';'1';'11';\N;'1';'3769';\N;\N;\N;\N;\N;'img/HD_1_3_.jpg';\N;\N;\N;\N;\N;'84';\N;'2014-06-06 18:39:46'
'A3QJYAJDN0D3V1';'TRAIN-XAB-HD';'TRAIN';'XAB';'HD';'adaptive_train';'1';'12';\N;'1';'2303';\N;\N;\N;\N;\N;'img/HD_6_3_.jpg';\N;\N;\N;\N;\N;'84';\N;'2014-06-06 18:39:46'
'A3QJYAJDN0D3V1';'TRAIN-XAB-HD';'TRAIN';'XAB';'HD';'adaptive_train';'1';'13';\N;'1';'847';\N;\N;\N;\N;\N;'img/HD_2_5_.jpg';\N;\N;\N;\N;\N;'66';\N;'2014-06-06 18:39:46'
'A3QJYAJDN0D3V1';'TRAIN-XAB-HD';'TRAIN';'XAB';'HD';'adaptive_train';'1';'14';\N;'0';'3250';\N;\N;\N;\N;\N;'img/HD_6_4_.jpg';\N;\N;\N;\N;\N;'84';\N;'2014-06-06 18:39:46'
'A3QJYAJDN0D3V1';'TRAIN-XAB-HD';'TRAIN';'XAB';'HD';'adaptive_train';'1';'15';\N;'1';'880';\N;\N;\N;\N;\N;'img/HD_4_1_.jpg';\N;\N;\N;\N;\N;'84';\N;'2014-06-06 18:39:46'
'A3QJYAJDN0D3V1';'TRAIN-XAB-HD';'TRAIN';'XAB';'HD';'adaptive_train';'1';'16';\N;'1';'1048';\N;\N;\N;\N;\N;'img/HD_6_2_.jpg';\N;\N;\N;\N;\N;'84';\N;'2014-06-06 18:39:46'
'A3QJYAJDN0D3V1';'TRAIN-XAB-HD';'TRAIN';'XAB';'HD';'adaptive_train';'1';'17';\N;'1';'680';\N;\N;\N;\N;\N;'img/HD_6_5_.jpg';\N;\N;\N;\N;\N;'66';\N;'2014-06-06 18:39:46'
'A3QJYAJDN0D3V1';'TRAIN-XAB-HD';'TRAIN';'XAB';'HD';'adaptive_train';'1';'18';\N;'1';'992';\N;\N;\N;\N;\N;'img/HD_4_5_.jpg';\N;\N;\N;\N;\N;'66';\N;'2014-06-06 18:39:46'
'A3QJYAJDN0D3V1';'TRAIN-XAB-HD';'TRAIN';'XAB';'HD';'adaptive_train';'1';'19';\N;'1';'1208';\N;\N;\N;\N;\N;'img/HD_4_3_.jpg';\N;\N;\N;\N;\N;'84';\N;'2014-06-06 18:39:46'
'A3QJYAJDN0D3V1';'TRAIN-XAB-HD';'TRAIN';'XAB';'HD';'adaptive_train';'1';'20';\N;'1';'743';\N;\N;\N;\N;\N;'img/HD_2_2_.jpg';\N;\N;\N;\N;\N;'84';\N;'2014-06-06 18:39:46'
'A3QJYAJDN0D3V1';'TRAIN-XAB-HD';'TRAIN';'XAB';'HD';'adaptive_train';'1';'21';\N;'1';'913';\N;\N;\N;\N;\N;'img/HD_1_1_.jpg';\N;\N;\N;\N;\N;'84';\N;'2014-06-06 18:39:46'
'A3QJYAJDN0D3V1';'TRAIN-XAB-HD';'TRAIN';'XAB';'HD';'adaptive_train';'1';'22';\N;'1';'737';\N;\N;\N;\N;\N;'img/HD_5_5_.jpg';\N;\N;\N;\N;\N;'66';\N;'2014-06-06 18:39:46'
'A3QJYAJDN0D3V1';'TRAIN-XAB-HD';'TRAIN';'XAB';'HD';'adaptive_train';'1';'23';\N;'1';'608';\N;\N;\N;\N;\N;'img/HD_3_6_.jpg';\N;\N;\N;\N;\N;'66';\N;'2014-06-06 18:39:46'
'A3QJYAJDN0D3V1';'TRAIN-XAB-HD';'TRAIN';'XAB';'HD';'adaptive_train';'1';'24';\N;'1';'857';\N;\N;\N;\N;\N;'img/HD_1_5_.jpg';\N;\N;\N;\N;\N;'66';\N;'2014-06-06 18:39:46'
'A3QJYAJDN0D3V1';'TRAIN-XAB-HD';'TRAIN';'XAB';'HD';'adaptive_train';'1';'25';\N;'1';'856';\N;\N;\N;\N;\N;'img/HD_3_5_.jpg';\N;\N;\N;\N;\N;'66';\N;'2014-06-06 18:39:46'
'A3QJYAJDN0D3V1';'TRAIN-XAB-HD';'TRAIN';'XAB';'HD';'adaptive_train';'1';'26';\N;'1';'992';\N;\N;\N;\N;\N;'img/HD_5_3_.jpg';\N;\N;\N;\N;\N;'84';\N;'2014-06-06 18:39:46'
'A3QJYAJDN0D3V1';'TRAIN-XAB-HD';'TRAIN';'XAB';'HD';'adaptive_train';'1';'27';\N;'0';'920';\N;\N;\N;\N;\N;'img/HD_3_4_.jpg';\N;\N;\N;\N;\N;'84';\N;'2014-06-06 18:39:46'
'A3QJYAJDN0D3V1';'TRAIN-XAB-HD';'TRAIN';'XAB';'HD';'adaptive_train';'1';'28';\N;'1';'1096';\N;\N;\N;\N;\N;'img/HD_1_4_.jpg';\N;\N;\N;\N;\N;'66';\N;'2014-06-06 18:39:46'
'A3QJYAJDN0D3V1';'TRAIN-XAB-HD';'TRAIN';'XAB';'HD';'adaptive_train';'1';'29';\N;'1';'1248';\N;\N;\N;\N;\N;'img/HD_1_2_.jpg';\N;\N;\N;\N;\N;'84';\N;'2014-06-06 18:39:46'
'A3QJYAJDN0D3V1';'TRAIN-XAB-HD';'TRAIN';'XAB';'HD';'adaptive_train';'1';'30';\N;'1';'1536';\N;\N;\N;\N;\N;'img/HD_4_4_.jpg';\N;\N;\N;\N;\N;'66';\N;'2014-06-06 18:39:46'
'A3QJYAJDN0D3V1';'TRAIN-XAB-HD';'TRAIN';'XAB';'HD';'adaptive_train';'1';'31';\N;'1';'1583';\N;\N;\N;\N;\N;'img/HD_5_1_.jpg';\N;\N;\N;\N;\N;'84';\N;'2014-06-06 18:39:46'
'A3QJYAJDN0D3V1';'TRAIN-XAB-HD';'TRAIN';'XAB';'HD';'adaptive_train';'1';'32';\N;'1';'808';\N;\N;\N;\N;\N;'img/HD_3_1_.jpg';\N;\N;\N;\N;\N;'84';\N;'2014-06-06 18:39:46'
'A3QJYAJDN0D3V1';'TRAIN-XAB-HD';'TRAIN';'XAB';'HD';'adaptive_train';'1';'33';\N;'1';'1007';\N;\N;\N;\N;\N;'img/HD_6_1_.jpg';\N;\N;\N;\N;\N;'84';\N;'2014-06-06 18:39:46'
'A3QJYAJDN0D3V1';'TRAIN-XAB-HD';'TRAIN';'XAB';'HD';'adaptive_train';'1';'34';\N;'1';'1656';\N;\N;\N;\N;\N;'img/HD_3_2_.jpg';\N;\N;\N;\N;\N;'84';\N;'2014-06-06 18:39:46'
'A3QJYAJDN0D3V1';'TRAIN-XAB-HD';'TRAIN';'XAB';'HD';'adaptive_train';'1';'35';\N;'1';'815';\N;\N;\N;\N;\N;'img/HD_4_2_.jpg';\N;\N;\N;\N;\N;'84';\N;'2014-06-06 18:39:46'
'A3QJYAJDN0D3V1';'TRAIN-XAB-HD';'TRAIN';'XAB';'HD';'adaptive_train';'2';'0';\N;'1';'1813';\N;\N;\N;\N;\N;'img/HD_6_2_.jpg';\N;\N;\N;\N;\N;'84';\N;'2014-06-06 18:39:46'
'A3QJYAJDN0D3V1';'TRAIN-XAB-HD';'TRAIN';'XAB';'HD';'adaptive_train';'2';'1';\N;'1';'1007';\N;\N;\N;\N;\N;'img/HD_2_1_.jpg';\N;\N;\N;\N;\N;'84';\N;'2014-06-06 18:39:46'
'A3QJYAJDN0D3V1';'TRAIN-XAB-HD';'TRAIN';'XAB';'HD';'adaptive_train';'2';'2';\N;'1';'752';\N;\N;\N;\N;\N;'img/HD_4_4_.jpg';\N;\N;\N;\N;\N;'66';\N;'2014-06-06 18:39:46'
'A3QJYAJDN0D3V1';'TRAIN-XAB-HD';'TRAIN';'XAB';'HD';'adaptive_train';'2';'3';\N;'1';'808';\N;\N;\N;\N;\N;'img/HD_6_5_.jpg';\N;\N;\N;\N;\N;'66';\N;'2014-06-06 18:39:46'
'A3QJYAJDN0D3V1';'TRAIN-XAB-HD';'TRAIN';'XAB';'HD';'adaptive_train';'2';'4';\N;'1';'848';\N;\N;\N;\N;\N;'img/HD_1_6_.jpg';\N;\N;\N;\N;\N;'66';\N;'2014-06-06 18:39:46'
'A3QJYAJDN0D3V1';'TRAIN-XAB-HD';'TRAIN';'XAB';'HD';'adaptive_train';'2';'5';\N;'1';'784';\N;\N;\N;\N;\N;'img/HD_2_2_.jpg';\N;\N;\N;\N;\N;'84';\N;'2014-06-06 18:39:46'
'A3QJYAJDN0D3V1';'TRAIN-XAB-HD';'TRAIN';'XAB';'HD';'adaptive_train';'2';'6';\N;'1';'840';\N;\N;\N;\N;\N;'img/HD_4_5_.jpg';\N;\N;\N;\N;\N;'66';\N;'2014-06-06 18:39:46'
'A3QJYAJDN0D3V1';'TRAIN-XAB-HD';'TRAIN';'XAB';'HD';'adaptive_train';'2';'7';\N;'1';'673';\N;\N;\N;\N;\N;'img/HD_3_5_.jpg';\N;\N;\N;\N;\N;'66';\N;'2014-06-06 18:39:46'
'A3QJYAJDN0D3V1';'TRAIN-XAB-HD';'TRAIN';'XAB';'HD';'adaptive_train';'2';'8';\N;'1';'713';\N;\N;\N;\N;\N;'img/HD_3_1_.jpg';\N;\N;\N;\N;\N;'84';\N;'2014-06-06 18:39:46'
'A3QJYAJDN0D3V1';'TRAIN-XAB-HD';'TRAIN';'XAB';'HD';'adaptive_train';'2';'9';\N;'1';'1872';\N;\N;\N;\N;\N;'img/HD_6_3_.jpg';\N;\N;\N;\N;\N;'84';\N;'2014-06-06 18:39:46'
'A3QJYAJDN0D3V1';'TRAIN-XAB-HD';'TRAIN';'XAB';'HD';'adaptive_train';'2';'10';\N;'0';'1935';\N;\N;\N;\N;\N;'img/HD_2_3_.jpg';\N;\N;\N;\N;\N;'66';\N;'2014-06-06 18:39:46'
'A3QJYAJDN0D3V1';'TRAIN-XAB-HD';'TRAIN';'XAB';'HD';'adaptive_train';'2';'11';\N;'1';'879';\N;\N;\N;\N;\N;'img/HD_1_1_.jpg';\N;\N;\N;\N;\N;'84';\N;'2014-06-06 18:39:46'
'A3QJYAJDN0D3V1';'TRAIN-XAB-HD';'TRAIN';'XAB';'HD';'adaptive_train';'2';'12';\N;'1';'920';\N;\N;\N;\N;\N;'img/HD_5_1_.jpg';\N;\N;\N;\N;\N;'84';\N;'2014-06-06 18:39:46'
'A3QJYAJDN0D3V1';'TRAIN-XAB-HD';'TRAIN';'XAB';'HD';'adaptive_train';'2';'13';\N;'1';'1073';\N;\N;\N;\N;\N;'img/HD_1_4_.jpg';\N;\N;\N;\N;\N;'66';\N;'2014-06-06 18:39:46'
'A3QJYAJDN0D3V1';'TRAIN-XAB-HD';'TRAIN';'XAB';'HD';'adaptive_train';'2';'14';\N;'0';'1633';\N;\N;\N;\N;\N;'img/HD_5_3_.jpg';\N;\N;\N;\N;\N;'66';\N;'2014-06-06 18:39:46'
'A3QJYAJDN0D3V1';'TRAIN-XAB-HD';'TRAIN';'XAB';'HD';'adaptive_train';'2';'15';\N;'1';'801';\N;\N;\N;\N;\N;'img/HD_1_5_.jpg';\N;\N;\N;\N;\N;'66';\N;'2014-06-06 18:39:46'
'A3QJYAJDN0D3V1';'TRAIN-XAB-HD';'TRAIN';'XAB';'HD';'adaptive_train';'2';'16';\N;'1';'984';\N;\N;\N;\N;\N;'img/HD_1_3_.jpg';\N;\N;\N;\N;\N;'84';\N;'2014-06-06 18:39:46'
'A3QJYAJDN0D3V1';'TRAIN-XAB-HD';'TRAIN';'XAB';'HD';'adaptive_train';'2';'17';\N;'0';'895';\N;\N;\N;\N;\N;'img/HD_3_4_.jpg';\N;\N;\N;\N;\N;'84';\N;'2014-06-06 18:39:46'
'A3QJYAJDN0D3V1';'TRAIN-XAB-HD';'TRAIN';'XAB';'HD';'adaptive_train';'2';'18';\N;'1';'1544';\N;\N;\N;\N;\N;'img/HD_3_3_.jpg';\N;\N;\N;\N;\N;'84';\N;'2014-06-06 18:39:46'
'A3QJYAJDN0D3V1';'TRAIN-XAB-HD';'TRAIN';'XAB';'HD';'adaptive_train';'2';'19';\N;'1';'807';\N;\N;\N;\N;\N;'img/HD_3_2_.jpg';\N;\N;\N;\N;\N;'84';\N;'2014-06-06 18:39:46'
'A3QJYAJDN0D3V1';'TRAIN-XAB-HD';'TRAIN';'XAB';'HD';'adaptive_train';'2';'20';\N;'1';'1559';\N;\N;\N;\N;\N;'img/HD_4_3_.jpg';\N;\N;\N;\N;\N;'84';\N;'2014-06-06 18:39:46'
'A3QJYAJDN0D3V1';'TRAIN-XAB-HD';'TRAIN';'XAB';'HD';'adaptive_train';'2';'21';\N;'1';'953';\N;\N;\N;\N;\N;'img/HD_2_4_.jpg';\N;\N;\N;\N;\N;'66';\N;'2014-06-06 18:39:46'
'A3QJYAJDN0D3V1';'TRAIN-XAB-HD';'TRAIN';'XAB';'HD';'adaptive_train';'2';'22';\N;'1';'816';\N;\N;\N;\N;\N;'img/HD_4_2_.jpg';\N;\N;\N;\N;\N;'84';\N;'2014-06-06 18:39:46'
'A3QJYAJDN0D3V1';'TRAIN-XAB-HD';'TRAIN';'XAB';'HD';'adaptive_train';'2';'23';\N;'1';'921';\N;\N;\N;\N;\N;'img/HD_5_5_.jpg';\N;\N;\N;\N;\N;'66';\N;'2014-06-06 18:39:46'
'A3QJYAJDN0D3V1';'TRAIN-XAB-HD';'TRAIN';'XAB';'HD';'adaptive_train';'2';'24';\N;'1';'1362';\N;\N;\N;\N;\N;'img/HD_5_4_.jpg';\N;\N;\N;\N;\N;'66';\N;'2014-06-06 18:39:46'
'A3QJYAJDN0D3V1';'TRAIN-XAB-HD';'TRAIN';'XAB';'HD';'adaptive_train';'2';'25';\N;'1';'879';\N;\N;\N;\N;\N;'img/HD_2_5_.jpg';\N;\N;\N;\N;\N;'66';\N;'2014-06-06 18:39:46'
'A3QJYAJDN0D3V1';'TRAIN-XAB-HD';'TRAIN';'XAB';'HD';'adaptive_train';'2';'26';\N;'1';'744';\N;\N;\N;\N;\N;'img/HD_1_2_.jpg';\N;\N;\N;\N;\N;'84';\N;'2014-06-06 18:39:46'
'A3QJYAJDN0D3V1';'TRAIN-XAB-HD';'TRAIN';'XAB';'HD';'adaptive_train';'2';'27';\N;'1';'752';\N;\N;\N;\N;\N;'img/HD_2_6_.jpg';\N;\N;\N;\N;\N;'66';\N;'2014-06-06 18:39:46'
'A3QJYAJDN0D3V1';'TRAIN-XAB-HD';'TRAIN';'XAB';'HD';'adaptive_train';'2';'28';\N;'1';'1056';\N;\N;\N;\N;\N;'img/HD_6_6_.jpg';\N;\N;\N;\N;\N;'66';\N;'2014-06-06 18:39:46'
'A3QJYAJDN0D3V1';'TRAIN-XAB-HD';'TRAIN';'XAB';'HD';'adaptive_train';'2';'29';\N;'1';'753';\N;\N;\N;\N;\N;'img/HD_4_1_.jpg';\N;\N;\N;\N;\N;'84';\N;'2014-06-06 18:39:46'
'A3QJYAJDN0D3V1';'TRAIN-XAB-HD';'TRAIN';'XAB';'HD';'adaptive_train';'2';'30';\N;'1';'905';\N;\N;\N;\N;\N;'img/HD_5_2_.jpg';\N;\N;\N;\N;\N;'84';\N;'2014-06-06 18:39:46'
'A3QJYAJDN0D3V1';'TRAIN-XAB-HD';'TRAIN';'XAB';'HD';'adaptive_train';'2';'31';\N;'1';'840';\N;\N;\N;\N;\N;'img/HD_5_6_.jpg';\N;\N;\N;\N;\N;'66';\N;'2014-06-06 18:39:46'
'A3QJYAJDN0D3V1';'TRAIN-XAB-HD';'TRAIN';'XAB';'HD';'adaptive_train';'2';'32';\N;'1';'976';\N;\N;\N;\N;\N;'img/HD_6_4_.jpg';\N;\N;\N;\N;\N;'66';\N;'2014-06-06 18:39:46'
'A3QJYAJDN0D3V1';'TRAIN-XAB-HD';'TRAIN';'XAB';'HD';'adaptive_train';'2';'33';\N;'1';'752';\N;\N;\N;\N;\N;'img/HD_3_6_.jpg';\N;\N;\N;\N;\N;'66';\N;'2014-06-06 18:39:46'
'A3QJYAJDN0D3V1';'TRAIN-XAB-HD';'TRAIN';'XAB';'HD';'adaptive_train';'2';'34';\N;'1';'799';\N;\N;\N;\N;\N;'img/HD_4_6_.jpg';\N;\N;\N;\N;\N;'66';\N;'2014-06-06 18:39:46'
'A3QJYAJDN0D3V1';'TRAIN-XAB-HD';'TRAIN';'XAB';'HD';'adaptive_train';'2';'35';\N;'1';'846';\N;\N;\N;\N;\N;'img/HD_6_1_.jpg';\N;\N;\N;\N;\N;'84';\N;'2014-06-06 18:39:46'
'A3QJYAJDN0D3V1';'TRAIN-XAB-HD';'TRAIN';'XAB';'HD';'adaptive_train';'3';'0';\N;'1';'3566';\N;\N;\N;\N;\N;'img/HD_6_3_.jpg';\N;\N;\N;\N;\N;'84';\N;'2014-06-06 18:39:46'
'A3QJYAJDN0D3V1';'TRAIN-XAB-HD';'TRAIN';'XAB';'HD';'adaptive_train';'3';'1';\N;'1';'1112';\N;\N;\N;\N;\N;'img/HD_3_5_.jpg';\N;\N;\N;\N;\N;'66';\N;'2014-06-06 18:39:46'
'A3QJYAJDN0D3V1';'TRAIN-XAB-HD';'TRAIN';'XAB';'HD';'adaptive_train';'3';'2';\N;'1';'688';\N;\N;\N;\N;\N;'img/HD_6_6_.jpg';\N;\N;\N;\N;\N;'66';\N;'2014-06-06 18:39:46'
'A3QJYAJDN0D3V1';'TRAIN-XAB-HD';'TRAIN';'XAB';'HD';'adaptive_train';'3';'3';\N;'1';'1272';\N;\N;\N;\N;\N;'img/HD_5_5_.jpg';\N;\N;\N;\N;\N;'66';\N;'2014-06-06 18:39:46'
'A3QJYAJDN0D3V1';'TRAIN-XAB-HD';'TRAIN';'XAB';'HD';'adaptive_train';'3';'4';\N;'1';'824';\N;\N;\N;\N;\N;'img/HD_2_1_.jpg';\N;\N;\N;\N;\N;'84';\N;'2014-06-06 18:39:46'
'A3QJYAJDN0D3V1';'TRAIN-XAB-HD';'TRAIN';'XAB';'HD';'adaptive_train';'3';'5';\N;'1';'1185';\N;\N;\N;\N;\N;'img/HD_2_5_.jpg';\N;\N;\N;\N;\N;'66';\N;'2014-06-06 18:39:46'
'A3QJYAJDN0D3V1';'TRAIN-XAB-HD';'TRAIN';'XAB';'HD';'adaptive_train';'3';'6';\N;'1';'1104';\N;\N;\N;\N;\N;'img/HD_6_5_.jpg';\N;\N;\N;\N;\N;'66';\N;'2014-06-06 18:39:46'
'A3QJYAJDN0D3V1';'TRAIN-XAB-HD';'TRAIN';'XAB';'HD';'adaptive_train';'3';'7';\N;'1';'672';\N;\N;\N;\N;\N;'img/HD_6_2_.jpg';\N;\N;\N;\N;\N;'84';\N;'2014-06-06 18:39:46'
'A3QJYAJDN0D3V1';'TRAIN-XAB-HD';'TRAIN';'XAB';'HD';'adaptive_train';'3';'8';\N;'1';'961';\N;\N;\N;\N;\N;'img/HD_5_3_.jpg';\N;\N;\N;\N;\N;'84';\N;'2014-06-06 18:39:46'
'A3QJYAJDN0D3V1';'TRAIN-XAB-HD';'TRAIN';'XAB';'HD';'adaptive_train';'3';'9';\N;'1';'1000';\N;\N;\N;\N;\N;'img/HD_1_1_.jpg';\N;\N;\N;\N;\N;'84';\N;'2014-06-06 18:39:46'
'A3QJYAJDN0D3V1';'TRAIN-XAB-HD';'TRAIN';'XAB';'HD';'adaptive_train';'3';'10';\N;'1';'832';\N;\N;\N;\N;\N;'img/HD_4_1_.jpg';\N;\N;\N;\N;\N;'84';\N;'2014-06-06 18:39:46'
'A3QJYAJDN0D3V1';'TRAIN-XAB-HD';'TRAIN';'XAB';'HD';'adaptive_train';'3';'11';\N;'1';'769';\N;\N;\N;\N;\N;'img/HD_5_2_.jpg';\N;\N;\N;\N;\N;'84';\N;'2014-06-06 18:39:46'
'A3QJYAJDN0D3V1';'TRAIN-XAB-HD';'TRAIN';'XAB';'HD';'adaptive_train';'3';'12';\N;'1';'904';\N;\N;\N;\N;\N;'img/HD_1_4_.jpg';\N;\N;\N;\N;\N;'66';\N;'2014-06-06 18:39:46'
'A3QJYAJDN0D3V1';'TRAIN-XAB-HD';'TRAIN';'XAB';'HD';'adaptive_train';'3';'13';\N;'1';'760';\N;\N;\N;\N;\N;'img/HD_4_5_.jpg';\N;\N;\N;\N;\N;'66';\N;'2014-06-06 18:39:46'
'A3QJYAJDN0D3V1';'TRAIN-XAB-HD';'TRAIN';'XAB';'HD';'adaptive_train';'3';'14';\N;'1';'760';\N;\N;\N;\N;\N;'img/HD_6_1_.jpg';\N;\N;\N;\N;\N;'84';\N;'2014-06-06 18:39:46'
'A3QJYAJDN0D3V1';'TRAIN-XAB-HD';'TRAIN';'XAB';'HD';'adaptive_train';'3';'15';\N;'1';'735';\N;\N;\N;\N;\N;'img/HD_3_6_.jpg';\N;\N;\N;\N;\N;'66';\N;'2014-06-06 18:39:46'
'A3QJYAJDN0D3V1';'TRAIN-XAB-HD';'TRAIN';'XAB';'HD';'adaptive_train';'3';'16';\N;'0';'2711';\N;\N;\N;\N;\N;'img/HD_1_3_.jpg';\N;\N;\N;\N;\N;'66';\N;'2014-06-06 18:39:46'
'A3QJYAJDN0D3V1';'TRAIN-XAB-HD';'TRAIN';'XAB';'HD';'adaptive_train';'3';'17';\N;'1';'886';\N;\N;\N;\N;\N;'img/HD_4_4_.jpg';\N;\N;\N;\N;\N;'66';\N;'2014-06-06 18:39:46'
'A3QJYAJDN0D3V1';'TRAIN-XAB-HD';'TRAIN';'XAB';'HD';'adaptive_train';'3';'18';\N;'1';'696';\N;\N;\N;\N;\N;'img/HD_4_6_.jpg';\N;\N;\N;\N;\N;'66';\N;'2014-06-06 18:39:46'
'A3QJYAJDN0D3V1';'TRAIN-XAB-HD';'TRAIN';'XAB';'HD';'adaptive_train';'3';'19';\N;'1';'922';\N;\N;\N;\N;\N;'img/HD_5_6_.jpg';\N;\N;\N;\N;\N;'66';\N;'2014-06-06 18:39:46'
'A3QJYAJDN0D3V1';'TRAIN-XAB-HD';'TRAIN';'XAB';'HD';'adaptive_train';'3';'20';\N;'1';'1079';\N;\N;\N;\N;\N;'img/HD_1_2_.jpg';\N;\N;\N;\N;\N;'84';\N;'2014-06-06 18:39:46'
'A3QJYAJDN0D3V1';'TRAIN-XAB-HD';'TRAIN';'XAB';'HD';'adaptive_train';'3';'21';\N;'1';'825';\N;\N;\N;\N;\N;'img/HD_1_6_.jpg';\N;\N;\N;\N;\N;'66';\N;'2014-06-06 18:39:46'
'A3QJYAJDN0D3V1';'TRAIN-XAB-HD';'TRAIN';'XAB';'HD';'adaptive_train';'3';'22';\N;'1';'760';\N;\N;\N;\N;\N;'img/HD_5_1_.jpg';\N;\N;\N;\N;\N;'84';\N;'2014-06-06 18:39:46'
'A3QJYAJDN0D3V1';'TRAIN-XAB-HD';'TRAIN';'XAB';'HD';'adaptive_train';'3';'23';\N;'1';'1521';\N;\N;\N;\N;\N;'img/HD_3_2_.jpg';\N;\N;\N;\N;\N;'84';\N;'2014-06-06 18:39:46'
'A3QJYAJDN0D3V1';'TRAIN-XAB-HD';'TRAIN';'XAB';'HD';'adaptive_train';'3';'24';\N;'1';'777';\N;\N;\N;\N;\N;'img/HD_3_1_.jpg';\N;\N;\N;\N;\N;'84';\N;'2014-06-06 18:39:46'
'A3QJYAJDN0D3V1';'TRAIN-XAB-HD';'TRAIN';'XAB';'HD';'adaptive_train';'3';'25';\N;'1';'1000';\N;\N;\N;\N;\N;'img/HD_2_2_.jpg';\N;\N;\N;\N;\N;'84';\N;'2014-06-06 18:39:46'
'A3QJYAJDN0D3V1';'TRAIN-XAB-HD';'TRAIN';'XAB';'HD';'adaptive_train';'3';'26';\N;'1';'2199';\N;\N;\N;\N;\N;'img/HD_4_3_.jpg';\N;\N;\N;\N;\N;'84';\N;'2014-06-06 18:39:46'
'A3QJYAJDN0D3V1';'TRAIN-XAB-HD';'TRAIN';'XAB';'HD';'adaptive_train';'3';'27';\N;'1';'2392';\N;\N;\N;\N;\N;'img/HD_6_4_.jpg';\N;\N;\N;\N;\N;'66';\N;'2014-06-06 18:39:46'
'A3QJYAJDN0D3V1';'TRAIN-XAB-HD';'TRAIN';'XAB';'HD';'adaptive_train';'3';'28';\N;'1';'625';\N;\N;\N;\N;\N;'img/HD_2_6_.jpg';\N;\N;\N;\N;\N;'66';\N;'2014-06-06 18:39:46'
'A3QJYAJDN0D3V1';'TRAIN-XAB-HD';'TRAIN';'XAB';'HD';'adaptive_train';'3';'29';\N;'1';'1367';\N;\N;\N;\N;\N;'img/HD_4_2_.jpg';\N;\N;\N;\N;\N;'84';\N;'2014-06-06 18:39:46'
'A3QJYAJDN0D3V1';'TRAIN-XAB-HD';'TRAIN';'XAB';'HD';'adaptive_train';'3';'30';\N;'1';'2032';\N;\N;\N;\N;\N;'img/HD_5_4_.jpg';\N;\N;\N;\N;\N;'66';\N;'2014-06-06 18:39:46'
'A3QJYAJDN0D3V1';'TRAIN-XAB-HD';'TRAIN';'XAB';'HD';'adaptive_train';'3';'31';\N;'0';'799';\N;\N;\N;\N;\N;'img/HD_3_3_.jpg';\N;\N;\N;\N;\N;'66';\N;'2014-06-06 18:39:46'
'A3QJYAJDN0D3V1';'TRAIN-XAB-HD';'TRAIN';'XAB';'HD';'adaptive_train';'3';'32';\N;'1';'855';\N;\N;\N;\N;\N;'img/HD_1_5_.jpg';\N;\N;\N;\N;\N;'66';\N;'2014-06-06 18:39:46'
'A3QJYAJDN0D3V1';'TRAIN-XAB-HD';'TRAIN';'XAB';'HD';'adaptive_train';'3';'33';\N;'1';'1031';\N;\N;\N;\N;\N;'img/HD_2_3_.jpg';\N;\N;\N;\N;\N;'84';\N;'2014-06-06 18:39:46'
'A3QJYAJDN0D3V1';'TRAIN-XAB-HD';'TRAIN';'XAB';'HD';'adaptive_train';'3';'34';\N;'1';'847';\N;\N;\N;\N;\N;'img/HD_3_4_.jpg';\N;\N;\N;\N;\N;'66';\N;'2014-06-06 18:39:46'
'A3QJYAJDN0D3V1';'TRAIN-XAB-HD';'TRAIN';'XAB';'HD';'adaptive_train';'3';'35';\N;'1';'776';\N;\N;\N;\N;\N;'img/HD_2_4_.jpg';\N;\N;\N;\N;\N;'66';\N;'2014-06-06 18:39:46'
'A3QJYAJDN0D3V1';'TRAIN-XAB-HD';'TRAIN';'XAB';'HD';'adaptive_train';'4';'0';\N;'1';'4427';\N;\N;\N;\N;\N;'img/HD_1_4_.jpg';\N;\N;\N;\N;\N;'66';\N;'2014-06-06 18:39:46'
'A3QJYAJDN0D3V1';'TRAIN-XAB-HD';'TRAIN';'XAB';'HD';'adaptive_train';'4';'1';\N;'0';'3345';\N;\N;\N;\N;\N;'img/HD_1_3_.jpg';\N;\N;\N;\N;\N;'66';\N;'2014-06-06 18:39:46'
'A3QJYAJDN0D3V1';'TRAIN-XAB-HD';'TRAIN';'XAB';'HD';'adaptive_train';'4';'2';\N;'1';'1095';\N;\N;\N;\N;\N;'img/HD_5_2_.jpg';\N;\N;\N;\N;\N;'84';\N;'2014-06-06 18:39:46'
'A3QJYAJDN0D3V1';'TRAIN-XAB-HD';'TRAIN';'XAB';'HD';'adaptive_train';'4';'3';\N;'1';'1192';\N;\N;\N;\N;\N;'img/HD_3_4_.jpg';\N;\N;\N;\N;\N;'66';\N;'2014-06-06 18:39:46'
'A3QJYAJDN0D3V1';'TRAIN-XAB-HD';'TRAIN';'XAB';'HD';'adaptive_train';'4';'4';\N;'1';'1801';\N;\N;\N;\N;\N;'img/HD_4_3_.jpg';\N;\N;\N;\N;\N;'84';\N;'2014-06-06 18:39:46'
'A3QJYAJDN0D3V1';'TRAIN-XAB-HD';'TRAIN';'XAB';'HD';'adaptive_train';'4';'5';\N;'1';'761';\N;\N;\N;\N;\N;'img/HD_2_3_.jpg';\N;\N;\N;\N;\N;'84';\N;'2014-06-06 18:39:46'
'A3QJYAJDN0D3V1';'TRAIN-XAB-HD';'TRAIN';'XAB';'HD';'adaptive_train';'4';'6';\N;'1';'1368';\N;\N;\N;\N;\N;'img/HD_3_3_.jpg';\N;\N;\N;\N;\N;'84';\N;'2014-06-06 18:39:46'
'A3QJYAJDN0D3V1';'TRAIN-XAB-HD';'TRAIN';'XAB';'HD';'adaptive_train';'4';'7';\N;'1';'1496';\N;\N;\N;\N;\N;'img/HD_6_4_.jpg';\N;\N;\N;\N;\N;'66';\N;'2014-06-06 18:39:46'
'A3QJYAJDN0D3V1';'TRAIN-XAB-HD';'TRAIN';'XAB';'HD';'adaptive_train';'4';'8';\N;'1';'1134';\N;\N;\N;\N;\N;'img/HD_5_3_.jpg';\N;\N;\N;\N;\N;'84';\N;'2014-06-06 18:39:46'
'A3QJYAJDN0D3V1';'TRAIN-XAB-HD';'TRAIN';'XAB';'HD';'adaptive_train';'4';'9';\N;'1';'713';\N;\N;\N;\N;\N;'img/HD_2_5_.jpg';\N;\N;\N;\N;\N;'66';\N;'2014-06-06 18:39:46'
'A3QJYAJDN0D3V1';'TRAIN-XAB-HD';'TRAIN';'XAB';'HD';'adaptive_train';'5';'0';\N;'1';'1925';\N;\N;\N;\N;\N;'img/HD_3_3_.jpg';\N;\N;\N;\N;\N;'84';\N;'2014-06-06 18:39:46'
'A3QJYAJDN0D3V1';'TRAIN-XAB-HD';'TRAIN';'XAB';'HD';'adaptive_train';'5';'1';\N;'1';'1361';\N;\N;\N;\N;\N;'img/HD_5_3_.jpg';\N;\N;\N;\N;\N;'84';\N;'2014-06-06 18:39:46'
'A3QJYAJDN0D3V1';'TRAIN-XAB-HD';'TRAIN';'XAB';'HD';'adaptive_train';'5';'2';\N;'1';'1817';\N;\N;\N;\N;\N;'img/HD_1_3_.jpg';\N;\N;\N;\N;\N;'84';\N;'2014-06-06 18:39:46'
'A3QJYAJDN0D3V1';'TRAIN-XAB-HD';'TRAIN';'XAB';'HD';'adaptive_train';'5';'3';\N;'1';'1072';\N;\N;\N;\N;\N;'img/HD_2_3_.jpg';\N;\N;\N;\N;\N;'84';\N;'2014-06-06 18:39:46'
'A3QJYAJDN0D3V1';'TRAIN-XAB-HD';'TRAIN';'XAB';'HD';'adaptive_train';'5';'4';\N;'0';'2329';\N;\N;\N;\N;\N;'img/HD_6_4_.jpg';\N;\N;\N;\N;\N;'84';\N;'2014-06-06 18:39:46'
'A3QJYAJDN0D3V1';'TRAIN-XAB-HD';'TRAIN';'XAB';'HD';'adaptive_train';'5';'5';\N;'1';'1888';\N;\N;\N;\N;\N;'img/HD_3_4_.jpg';\N;\N;\N;\N;\N;'66';\N;'2014-06-06 18:39:46'
'A3QJYAJDN0D3V1';'TRAIN-XAB-HD';'TRAIN';'XAB';'HD';'adaptive_train';'6';'0';\N;'1';'2118';\N;\N;\N;\N;\N;'img/HD_2_3_.jpg';\N;\N;\N;\N;\N;'84';\N;'2014-06-06 18:39:46'
'A3QJYAJDN0D3V1';'TRAIN-XAB-HD';'TRAIN';'XAB';'HD';'adaptive_train';'6';'1';\N;'1';'1456';\N;\N;\N;\N;\N;'img/HD_5_3_.jpg';\N;\N;\N;\N;\N;'84';\N;'2014-06-06 18:39:46'
'A3QJYAJDN0D3V1';'TRAIN-XAB-HD';'TRAIN';'XAB';'HD';'adaptive_train';'6';'2';\N;'1';'2361';\N;\N;\N;\N;\N;'img/HD_3_3_.jpg';\N;\N;\N;\N;\N;'84';\N;'2014-06-06 18:39:46'
'A3QJYAJDN0D3V1';'TRAIN-XAB-HD';'TRAIN';'XAB';'HD';'adaptive_train';'6';'3';\N;'1';'879';\N;\N;\N;\N;\N;'img/HD_6_4_.jpg';\N;\N;\N;\N;\N;'66';\N;'2014-06-06 18:39:46'
'A3QJYAJDN0D3V1';'TRAIN-XAB-HD';'TRAIN';'XAB';'HD';'adaptive_train';'6';'4';\N;'0';'2080';\N;\N;\N;\N;\N;'img/HD_3_4_.jpg';\N;\N;\N;\N;\N;'84';\N;'2014-06-06 18:39:46'
'A3QJYAJDN0D3V1';'TRAIN-XAB-HD';'TRAIN';'XAB';'HD';'adaptive_train';'6';'5';\N;'1';'1527';\N;\N;\N;\N;\N;'img/HD_1_3_.jpg';\N;\N;\N;\N;\N;'84';\N;'2014-06-06 18:39:46'
'A3QJYAJDN0D3V1';'TRAIN-XAB-HD';'TRAIN';'XAB';'HD';'adaptive_train';'7';'0';\N;'1';'1654';\N;\N;\N;\N;\N;'img/HD_3_4_.jpg';\N;\N;\N;\N;\N;'66';\N;'2014-06-06 18:39:46'
'A3QJYAJDN0D3V1';'TRAIN-XAB-HD';'TRAIN';'XAB';'HD';'adaptive_train';'7';'1';\N;'0';'2064';\N;\N;\N;\N;\N;'img/HD_6_4_.jpg';\N;\N;\N;\N;\N;'84';\N;'2014-06-06 18:39:46'
'A3QJYAJDN0D3V1';'TRAIN-XAB-HD';'TRAIN';'XAB';'HD';'adaptive_train';'7';'2';\N;'1';'713';\N;\N;\N;\N;\N;'img/HD_6_1_.jpg';\N;\N;\N;\N;\N;'84';\N;'2014-06-06 18:39:46'
'A3QJYAJDN0D3V1';'TRAIN-XAB-HD';'TRAIN';'XAB';'HD';'adaptive_train';'7';'3';\N;'0';'769';\N;\N;\N;\N;\N;'img/HD_3_3_.jpg';\N;\N;\N;\N;\N;'66';\N;'2014-06-06 18:39:46'
'A3QJYAJDN0D3V1';'TRAIN-XAB-HD';'TRAIN';'XAB';'HD';'adaptive_train';'7';'4';\N;'0';'2432';\N;\N;\N;\N;\N;'img/HD_1_3_.jpg';\N;\N;\N;\N;\N;'66';\N;'2014-06-06 18:39:46'
'A3QJYAJDN0D3V1';'TRAIN-XAB-HD';'TRAIN';'XAB';'HD';'adaptive_train';'8';'0';\N;'1';'2444';\N;\N;\N;\N;\N;'img/HD_3_4_.jpg';\N;\N;\N;\N;\N;'66';\N;'2014-06-06 18:39:46'
'A3QJYAJDN0D3V1';'TRAIN-XAB-HD';'TRAIN';'XAB';'HD';'adaptive_train';'8';'1';\N;'1';'1145';\N;\N;\N;\N;\N;'img/HD_6_4_.jpg';\N;\N;\N;\N;\N;'66';\N;'2014-06-06 18:39:46'
'A3QJYAJDN0D3V1';'TRAIN-XAB-HD';'TRAIN';'XAB';'HD';'adaptive_train';'8';'2';\N;'1';'1216';\N;\N;\N;\N;\N;'img/HD_3_3_.jpg';\N;\N;\N;\N;\N;'84';\N;'2014-06-06 18:39:46'
'A3QJYAJDN0D3V1';'TRAIN-XAB-HD';'TRAIN';'XAB';'HD';'adaptive_train';'8';'3';\N;'1';'944';\N;\N;\N;\N;\N;'img/HD_5_1_.jpg';\N;\N;\N;\N;\N;'84';\N;'2014-06-06 18:39:46'
'A3QJYAJDN0D3V1';'TRAIN-XAB-HD';'TRAIN';'XAB';'HD';'adaptive_train';'8';'4';\N;'1';'1807';\N;\N;\N;\N;\N;'img/HD_1_3_.jpg';\N;\N;\N;\N;\N;'84';\N;'2014-06-06 18:39:46'
'A3QJYAJDN0D3V1';'TRAIN-XAB-HD';'TRAIN';'XAB';'HD';'adaptive_train';'9';'0';\N;'1';'6118';\N;\N;\N;\N;\N;'img/HD_1_3_.jpg';\N;\N;\N;\N;\N;'84';\N;'2014-06-06 18:39:46'
'A3QJYAJDN0D3V1';'TRAIN-XAB-HD';'TRAIN';'XAB';'HD';'adaptive_train';'9';'1';\N;'1';'863';\N;\N;\N;\N;\N;'img/HD_6_2_.jpg';\N;\N;\N;\N;\N;'84';\N;'2014-06-06 18:39:46'
'A3QJYAJDN0D3V1';'TRAIN-XAB-HD';'TRAIN';'XAB';'HD';'adaptive_train';'9';'2';\N;'0';'2677';\N;\N;\N;\N;\N;'img/HD_3_3_.jpg';\N;\N;\N;\N;\N;'66';\N;'2014-06-06 18:39:46'
'A3QJYAJDN0D3V1';'TRAIN-XAB-HD';'TRAIN';'XAB';'HD';'adaptive_train';'9';'3';\N;'1';'4243';\N;\N;\N;\N;\N;'img/HD_3_4_.jpg';\N;\N;\N;\N;\N;'66';\N;'2014-06-06 18:39:46'
'A3QJYAJDN0D3V1';'TRAIN-XAB-HD';'TRAIN';'XAB';'HD';'adaptive_train';'9';'4';\N;'0';'1903';\N;\N;\N;\N;\N;'img/HD_6_4_.jpg';\N;\N;\N;\N;\N;'84';\N;'2014-06-06 18:39:46'
'A3QJYAJDN0D3V1';'TRAIN-XAB-HD';'TRAIN';'XAB';'HD';'adaptive_train';'10';'0';\N;'1';'3765';\N;\N;\N;\N;\N;'img/HD_1_3_.jpg';\N;\N;\N;\N;\N;'84';\N;'2014-06-06 18:39:46'
'A3QJYAJDN0D3V1';'TRAIN-XAB-HD';'TRAIN';'XAB';'HD';'adaptive_train';'10';'1';\N;'1';'1152';\N;\N;\N;\N;\N;'img/HD_3_5_.jpg';\N;\N;\N;\N;\N;'66';\N;'2014-06-06 18:39:46'
'A3QJYAJDN0D3V1';'TRAIN-XAB-HD';'TRAIN';'XAB';'HD';'adaptive_train';'10';'2';\N;'1';'896';\N;\N;\N;\N;\N;'img/HD_3_3_.jpg';\N;\N;\N;\N;\N;'84';\N;'2014-06-06 18:39:46'
'A3QJYAJDN0D3V1';'TRAIN-XAB-HD';'TRAIN';'XAB';'HD';'adaptive_train';'10';'3';\N;'0';'2089';\N;\N;\N;\N;\N;'img/HD_6_4_.jpg';\N;\N;\N;\N;\N;'84';\N;'2014-06-06 18:39:46'
'A3QJYAJDN0D3V1';'TRAIN-XAB-HD';'TRAIN';'XAB';'HD';'adaptive_train';'10';'4';\N;'1';'2344';\N;\N;\N;\N;\N;'img/HD_3_4_.jpg';\N;\N;\N;\N;\N;'66';\N;'2014-06-06 18:39:46'
'A3QJYAJDN0D3V1';'TRAIN-XAB-HD';'TRAIN';'XAB';'HD';'adaptive_train';'11';'0';\N;'1';'1525';\N;\N;\N;\N;\N;'img/HD_1_3_.jpg';\N;\N;\N;\N;\N;'84';\N;'2014-06-06 18:39:46'
'A3QJYAJDN0D3V1';'TRAIN-XAB-HD';'TRAIN';'XAB';'HD';'adaptive_train';'11';'1';\N;'1';'2220';\N;\N;\N;\N;\N;'img/HD_6_4_.jpg';\N;\N;\N;\N;\N;'66';\N;'2014-06-06 18:39:46'
'A3QJYAJDN0D3V1';'TRAIN-XAB-HD';'TRAIN';'XAB';'HD';'adaptive_train';'11';'2';\N;'1';'1007';\N;\N;\N;\N;\N;'img/HD_1_5_.jpg';\N;\N;\N;\N;\N;'66';\N;'2014-06-06 18:39:46'
'A3QJYAJDN0D3V1';'TRAIN-XAB-HD';'TRAIN';'XAB';'HD';'adaptive_train';'11';'3';\N;'1';'1287';\N;\N;\N;\N;\N;'img/HD_2_3_.jpg';\N;\N;\N;\N;\N;'84';\N;'2014-06-06 18:39:46'
'A3QJYAJDN0D3V1';'TRAIN-XAB-HD';'TRAIN';'XAB';'HD';'adaptive_train';'11';'4';\N;'1';'977';\N;\N;\N;\N;\N;'img/HD_3_3_.jpg';\N;\N;\N;\N;\N;'84';\N;'2014-06-06 18:39:46'
'A3QJYAJDN0D3V1';'TRAIN-XAB-HD';'TRAIN';'XAB';'HD';'adaptive_train';'12';'0';\N;'1';'1782';\N;\N;\N;\N;\N;'img/HD_2_6_.jpg';\N;\N;\N;\N;\N;'66';\N;'2014-06-06 18:39:46'
'A3QJYAJDN0D3V1';'TRAIN-XAB-HD';'TRAIN';'XAB';'HD';'adaptive_train';'12';'1';\N;'0';'3853';\N;\N;\N;\N;\N;'img/HD_1_4_.jpg';\N;\N;\N;\N;\N;'84';\N;'2014-06-06 18:39:46'
'A3QJYAJDN0D3V1';'TRAIN-XAB-HD';'TRAIN';'XAB';'HD';'adaptive_train';'12';'2';\N;'0';'1562';\N;\N;\N;\N;\N;'img/HD_6_4_.jpg';\N;\N;\N;\N;\N;'84';\N;'2014-06-06 18:39:46'
'A3QJYAJDN0D3V1';'TRAIN-XAB-HD';'TRAIN';'XAB';'HD';'adaptive_train';'12';'3';\N;'1';'1974';\N;\N;\N;\N;\N;'img/HD_6_2_.jpg';\N;\N;\N;\N;\N;'84';\N;'2014-06-06 18:39:46'
'A3QJYAJDN0D3V1';'TRAIN-XAB-HD';'TRAIN';'XAB';'HD';'adaptive_train';'12';'4';\N;'1';'2688';\N;\N;\N;\N;\N;'img/HD_3_3_.jpg';\N;\N;\N;\N;\N;'84';\N;'2014-06-06 18:39:46'
'A3QJYAJDN0D3V1';'TRAIN-XAB-HD';'TRAIN';'XAB';'HD';'adaptive_train';'13';'0';\N;'1';'1398';\N;\N;\N;\N;\N;'img/HD_1_6_.jpg';\N;\N;\N;\N;\N;'66';\N;'2014-06-06 18:39:46'
'A3QJYAJDN0D3V1';'TRAIN-XAB-HD';'TRAIN';'XAB';'HD';'adaptive_train';'13';'1';\N;'1';'4415';\N;\N;\N;\N;\N;'img/HD_6_4_.jpg';\N;\N;\N;\N;\N;'66';\N;'2014-06-06 18:39:46'
'A3QJYAJDN0D3V1';'TRAIN-XAB-HD';'TRAIN';'XAB';'HD';'adaptive_train';'13';'2';\N;'1';'872';\N;\N;\N;\N;\N;'img/HD_2_6_.jpg';\N;\N;\N;\N;\N;'66';\N;'2014-06-06 18:39:46'
'A3QJYAJDN0D3V1';'TRAIN-XAB-HD';'TRAIN';'XAB';'HD';'adaptive_train';'13';'3';\N;'1';'720';\N;\N;\N;\N;\N;'img/HD_3_3_.jpg';\N;\N;\N;\N;\N;'84';\N;'2014-06-06 18:39:46'
'A3QJYAJDN0D3V1';'TRAIN-XAB-HD';'TRAIN';'XAB';'HD';'adaptive_train';'13';'4';\N;'1';'903';\N;\N;\N;\N;\N;'img/HD_2_2_.jpg';\N;\N;\N;\N;\N;'84';\N;'2014-06-06 18:39:46'
'A3QJYAJDN0D3V1';'TRAIN-XAB-HD';'TRAIN';'XAB';'HD';'adaptive_train';'14';'0';\N;'1';'1558';\N;\N;\N;\N;\N;'img/HD_5_6_.jpg';\N;\N;\N;\N;\N;'66';\N;'2014-06-06 18:39:46'
'A3QJYAJDN0D3V1';'TRAIN-XAB-HD';'TRAIN';'XAB';'HD';'adaptive_train';'14';'1';\N;'1';'823';\N;\N;\N;\N;\N;'img/HD_1_1_.jpg';\N;\N;\N;\N;\N;'84';\N;'2014-06-06 18:39:46'
'A3QJYAJDN0D3V1';'TRAIN-XAB-HD';'TRAIN';'XAB';'HD';'adaptive_train';'14';'2';\N;'1';'2521';\N;\N;\N;\N;\N;'img/HD_6_4_.jpg';\N;\N;\N;\N;\N;'66';\N;'2014-06-06 18:39:46'
'A3QJYAJDN0D3V1';'TRAIN-XAB-HD';'TRAIN';'XAB';'HD';'adaptive_train';'14';'3';\N;'1';'1352';\N;\N;\N;\N;\N;'img/HD_5_3_.jpg';\N;\N;\N;\N;\N;'84';\N;'2014-06-06 18:39:46'
'A3QJYAJDN0D3V1';'TRAIN-XAB-HD';'TRAIN';'XAB';'HD';'adaptive_train';'14';'4';\N;'1';'1384';\N;\N;\N;\N;\N;'img/HD_2_1_.jpg';\N;\N;\N;\N;\N;'84';\N;'2014-06-06 18:39:46'
'A3QJYAJDN0D3V1';'TRAIN-XAB-HD';'TRAIN';'XAB';'HD';'adaptive_train';'15';'0';\N;'1';'3093';\N;\N;\N;\N;\N;'img/HD_6_4_.jpg';\N;\N;\N;\N;\N;'66';\N;'2014-06-06 18:39:46'
'A3QJYAJDN0D3V1';'TRAIN-XAB-HD';'TRAIN';'XAB';'HD';'adaptive_train';'15';'1';\N;'1';'999';\N;\N;\N;\N;\N;'img/HD_6_5_.jpg';\N;\N;\N;\N;\N;'66';\N;'2014-06-06 18:39:46'
'A3QJYAJDN0D3V1';'TRAIN-XAB-HD';'TRAIN';'XAB';'HD';'adaptive_train';'15';'2';\N;'0';'4832';\N;\N;\N;\N;\N;'img/HD_5_4_.jpg';\N;\N;\N;\N;\N;'84';\N;'2014-06-06 18:39:46'
'A3QJYAJDN0D3V1';'TRAIN-XAB-HD';'TRAIN';'XAB';'HD';'adaptive_train';'15';'3';\N;'1';'1557';\N;\N;\N;\N;\N;'img/HD_5_3_.jpg';\N;\N;\N;\N;\N;'84';\N;'2014-06-06 18:39:46'
'A3QJYAJDN0D3V1';'TRAIN-XAB-HD';'TRAIN';'XAB';'HD';'adaptive_train';'15';'4';\N;'1';'751';\N;\N;\N;\N;\N;'img/HD_6_2_.jpg';\N;\N;\N;\N;\N;'84';\N;'2014-06-06 18:39:46'
'A3QJYAJDN0D3V1';'TRAIN-XAB-HD';'TRAIN';'XAB';'HD';'adaptive_train';'16';'0';\N;'1';'1517';\N;\N;\N;\N;\N;'img/HD_4_6_.jpg';\N;\N;\N;\N;\N;'66';\N;'2014-06-06 18:39:46'
'A3QJYAJDN0D3V1';'TRAIN-XAB-HD';'TRAIN';'XAB';'HD';'adaptive_train';'16';'1';\N;'1';'833';\N;\N;\N;\N;\N;'img/HD_4_2_.jpg';\N;\N;\N;\N;\N;'84';\N;'2014-06-06 18:39:46'
'A3QJYAJDN0D3V1';'TRAIN-XAB-HD';'TRAIN';'XAB';'HD';'adaptive_train';'16';'2';\N;'1';'680';\N;\N;\N;\N;\N;'img/HD_2_5_.jpg';\N;\N;\N;\N;\N;'66';\N;'2014-06-06 18:39:46'
'A3QJYAJDN0D3V1';'TRAIN-XAB-HD';'TRAIN';'XAB';'HD';'adaptive_train';'16';'3';\N;'1';'1175';\N;\N;\N;\N;\N;'img/HD_6_3_.jpg';\N;\N;\N;\N;\N;'84';\N;'2014-06-06 18:39:46'
'A3QJYAJDN0D3V1';'TRAIN-XAB-HD';'TRAIN';'XAB';'HD';'adaptive_train';'16';'4';\N;'1';'1256';\N;\N;\N;\N;\N;'img/HD_6_4_.jpg';\N;\N;\N;\N;\N;'66';\N;'2014-06-06 18:39:46'
